@prefix dccs:  <http://www.example.org/dc/tab5x01/dccs/> .
@prefix sdtms-1-3: <http://rdf.cdisc.org/sdtm-1-3/schema#> .
@prefix code:  <http://www.example.org/dc/code/> .
@prefix adam-2-1: <http://rdf.cdisc.org/std/adam-2-1#> .
@prefix owl:   <http://www.w3.org/2002/07/owl#> .
@prefix xsd:   <http://www.w3.org/2001/XMLSchema#> .
@prefix skos:  <http://www.w3.org/2004/02/skos/core#> .
@prefix cdash-1-1: <http://rdf.cdisc.org/std/cdash-1-1#> .
@prefix sdtm-1-3: <http://rdf.cdisc.org/std/sdtm-1-3#> .
@prefix rdfs:  <http://www.w3.org/2000/01/rdf-schema#> .
@prefix adamvr-1-2: <http://rdf.cdisc.org/std/adamvr-1-2#> .
@prefix crnd-attribute: <http://www.example.org/dc/attribute#> .
@prefix sdtm-1-2: <http://rdf.cdisc.org/std/sdtm-1-2#> .
@prefix sdtmct: <http://rdf.cdisc.org/sdtm-terminology#> .
@prefix ds:    <http://www.example.org/dc/tab5x01/ds/> .
@prefix qb:    <http://purl.org/linked-data/cube#> .
@prefix mms:   <http://rdf.cdisc.org/mms#> .
@prefix crnd-dimension: <http://www.example.org/dc/dimension#> .
@prefix dct:   <http://purl.org/dc/terms/> .
@prefix cdiscs: <http://rdf.cdisc.org/std/schema#> .
@prefix dcat:  <http://www.w3.org/ns/dcat#> .
@prefix cdashct: <http://rdf.cdisc.org/cdash-terminology#> .
@prefix prov:  <http://www.w3.org/ns/prov#> .
@prefix sdtmig-3-1-3: <http://rdf.cdisc.org/std/sdtmig-3-1-3#> .
@prefix adamig-1-0: <http://rdf.cdisc.org/std/adamig-1-0#> .
@prefix crnd-measure: <http://www.example.org/dc/measure#> .
@prefix cts:   <http://rdf.cdisc.org/ct/schema#> .
@prefix pav:   <http://purl.org/pav> .
@prefix sdtmig-3-1-2: <http://rdf.cdisc.org/std/sdtmig-3-1-2#> .
@prefix sendig-3-0: <http://rdf.cdisc.org/std/sendig-3-0#> .
@prefix rdf:   <http://www.w3.org/1999/02/22-rdf-syntax-ns#> .
@prefix adamct: <http://rdf.cdisc.org/adam-terminology#> .
@prefix sendct: <http://rdf.cdisc.org/send-terminology#> .
@prefix rrdfqbcrnd0: <http://www.example.org/rrdfqbcrnd0/> .
@prefix dc:    <http://purl.org/dc/elements/1.1/> .

ds:obs688  a                        qb:Observation ;
        rdfs:comment                "Statistic for number of records/Statistics for factor with the dimensions XX"@en ;
        rdfs:label                  "688"^^xsd:string ;
        qb:dataSet                  ds:dataset-TAB5X01 ;
        crnd-attribute:denominator  "_ALL_" ;
        crnd-attribute:unit         "NA"^^xsd:string ;
        crnd-dimension:aedecod      code:aedecod-CATARACT_OPERATION ;
        crnd-dimension:aesoc        code:aesoc-SURGICAL_AND_MEDICAL_PROCEDURES ;
        crnd-dimension:factor       code:factor-quantify ;
        crnd-dimension:procedure    code:procedure-count ;
        crnd-dimension:saffl        code:saffl-Y ;
        crnd-dimension:trta         code:trta-Placebo ;
        crnd-dimension:trtemfl      code:trtemfl-Y ;
        crnd-measure:measure        "1"^^xsd:double .

code:aedecod-SINUS_ARRHYTHMIA
        a                             code:Aedecod , skos:Concept ;
        rdfs:comment                  "Coded values from data source. No reconciliation against another source"@en ;
        rrdfqbcrnd0:R-selectionoperator
                "=="^^xsd:string ;
        rrdfqbcrnd0:R-selectionvalue  "SINUS ARRHYTHMIA"^^xsd:string ;
        skos:inScheme                 code:aedecod ;
        skos:prefLabel                "SINUS ARRHYTHMIA"^^xsd:string ;
        skos:topConceptOf             code:aedecod .

ds:obs260  a                        qb:Observation ;
        rdfs:comment                "Statistic for number of records/Statistics for factor with the dimensions XX"@en ;
        rdfs:label                  "260"^^xsd:string ;
        qb:dataSet                  ds:dataset-TAB5X01 ;
        crnd-attribute:denominator  "_ALL_" ;
        crnd-attribute:unit         "NA"^^xsd:string ;
        crnd-dimension:aedecod      code:aedecod-CELLULITIS ;
        crnd-dimension:aesoc        code:aesoc-INFECTIONS_AND_INFESTATIONS ;
        crnd-dimension:factor       code:factor-quantify ;
        crnd-dimension:procedure    code:procedure-count ;
        crnd-dimension:saffl        code:saffl-Y ;
        crnd-dimension:trta         code:trta-Xanomeline_Low_Dose ;
        crnd-dimension:trtemfl      code:trtemfl-Y ;
        crnd-measure:measure        "1"^^xsd:double .

ds:obs435  a                        qb:Observation ;
        rdfs:comment                "Statistic for number of records/Statistics for factor with the dimensions XX"@en ;
        rdfs:label                  "435"^^xsd:string ;
        qb:dataSet                  ds:dataset-TAB5X01 ;
        crnd-attribute:denominator  "_ALL_" ;
        crnd-attribute:unit         "NA"^^xsd:string ;
        crnd-dimension:aedecod      code:aedecod-AMNESIA ;
        crnd-dimension:aesoc        code:aesoc-NERVOUS_SYSTEM_DISORDERS ;
        crnd-dimension:factor       code:factor-usubjid ;
        crnd-dimension:procedure    code:procedure-countdistinct ;
        crnd-dimension:saffl        code:saffl-Y ;
        crnd-dimension:trta         code:trta-Xanomeline_High_Dose ;
        crnd-dimension:trtemfl      code:trtemfl-Y ;
        crnd-measure:measure        "1"^^xsd:double .

code:aesoc-_NONMISS_  a    code:Aesoc , skos:Concept ;
        rdfs:comment       "NON-CDISC: Represents the non-missing codelist categories. Does not include missing values."@en ;
        rrdfqbcrnd0:R-selectionfunction
                "is.na"^^xsd:string ;
        skos:inScheme      code:aesoc ;
        skos:prefLabel     "_NONMISS_"^^xsd:string ;
        skos:topConceptOf  code:aesoc .

code:aedecod-BLOOD_CHOLESTEROL_INCREASED
        a                             code:Aedecod , skos:Concept ;
        rdfs:comment                  "Coded values from data source. No reconciliation against another source"@en ;
        rrdfqbcrnd0:R-selectionoperator
                "=="^^xsd:string ;
        rrdfqbcrnd0:R-selectionvalue  "BLOOD CHOLESTEROL INCREASED"^^xsd:string ;
        skos:inScheme                 code:aedecod ;
        skos:prefLabel                "BLOOD CHOLESTEROL INCREASED"^^xsd:string ;
        skos:topConceptOf             code:aedecod .

code:aedecod-ATRIAL_FLUTTER
        a                             code:Aedecod , skos:Concept ;
        rdfs:comment                  "Coded values from data source. No reconciliation against another source"@en ;
        rrdfqbcrnd0:R-selectionoperator
                "=="^^xsd:string ;
        rrdfqbcrnd0:R-selectionvalue  "ATRIAL FLUTTER"^^xsd:string ;
        skos:inScheme                 code:aedecod ;
        skos:prefLabel                "ATRIAL FLUTTER"^^xsd:string ;
        skos:topConceptOf             code:aedecod .

code:aedecod-APPLICATION_SITE_IRRITATION
        a                             code:Aedecod , skos:Concept ;
        rdfs:comment                  "Coded values from data source. No reconciliation against another source"@en ;
        rrdfqbcrnd0:R-selectionoperator
                "=="^^xsd:string ;
        rrdfqbcrnd0:R-selectionvalue  "APPLICATION SITE IRRITATION"^^xsd:string ;
        skos:inScheme                 code:aedecod ;
        skos:prefLabel                "APPLICATION SITE IRRITATION"^^xsd:string ;
        skos:topConceptOf             code:aedecod .

ds:obs481  a                        qb:Observation ;
        rdfs:comment                "Statistic for number of records/Statistics for factor with the dimensions XX"@en ;
        rdfs:label                  "481"^^xsd:string ;
        qb:dataSet                  ds:dataset-TAB5X01 ;
        crnd-attribute:denominator  "_ALL_" ;
        crnd-attribute:unit         "NA"^^xsd:string ;
        crnd-dimension:aedecod      code:aedecod-SOMNOLENCE ;
        crnd-dimension:aesoc        code:aesoc-NERVOUS_SYSTEM_DISORDERS ;
        crnd-dimension:factor       code:factor-usubjid ;
        crnd-dimension:procedure    code:procedure-countdistinct ;
        crnd-dimension:saffl        code:saffl-Y ;
        crnd-dimension:trta         code:trta-Xanomeline_High_Dose ;
        crnd-dimension:trtemfl      code:trtemfl-Y ;
        crnd-measure:measure        "1"^^xsd:double .

code:aedecod-HYPOTENSION
        a                             code:Aedecod , skos:Concept ;
        rdfs:comment                  "Coded values from data source. No reconciliation against another source"@en ;
        rrdfqbcrnd0:R-selectionoperator
                "=="^^xsd:string ;
        rrdfqbcrnd0:R-selectionvalue  "HYPOTENSION"^^xsd:string ;
        skos:inScheme                 code:aedecod ;
        skos:prefLabel                "HYPOTENSION"^^xsd:string ;
        skos:topConceptOf             code:aedecod .

ds:obs656  a                        qb:Observation ;
        rdfs:comment                "Statistic for number of records/Statistics for factor with the dimensions XX"@en ;
        rdfs:label                  "656"^^xsd:string ;
        qb:dataSet                  ds:dataset-TAB5X01 ;
        crnd-attribute:denominator  "_ALL_" ;
        crnd-attribute:unit         "NA"^^xsd:string ;
        crnd-dimension:aedecod      code:aedecod-RASH ;
        crnd-dimension:aesoc        code:aesoc-SKIN_AND_SUBCUTANEOUS_TISSUE_DIS ;
        crnd-dimension:factor       code:factor-quantify ;
        crnd-dimension:procedure    code:procedure-count ;
        crnd-dimension:saffl        code:saffl-Y ;
        crnd-dimension:trta         code:trta-Xanomeline_High_Dose ;
        crnd-dimension:trtemfl      code:trtemfl-Y ;
        crnd-measure:measure        "15"^^xsd:double .

code:aedecod-_ALL_  a      code:Aedecod , skos:Concept ;
        rdfs:comment       "NON-CDISC: Represents all codelist categories."@en , "Coded values from data source. No reconciliation against another source"@en ;
        skos:inScheme      code:aedecod ;
        skos:prefLabel     "_ALL_"^^xsd:string ;
        skos:topConceptOf  code:aedecod .

code:aedecod-HORDEOLUM
        a                             code:Aedecod , skos:Concept ;
        rdfs:comment                  "Coded values from data source. No reconciliation against another source"@en ;
        rrdfqbcrnd0:R-selectionoperator
                "=="^^xsd:string ;
        rrdfqbcrnd0:R-selectionvalue  "HORDEOLUM"^^xsd:string ;
        skos:inScheme                 code:aedecod ;
        skos:prefLabel                "HORDEOLUM"^^xsd:string ;
        skos:topConceptOf             code:aedecod .

ds:obs403  a                        qb:Observation ;
        rdfs:comment                "Statistic for number of records/Statistics for factor with the dimensions XX"@en ;
        rdfs:label                  "403"^^xsd:string ;
        qb:dataSet                  ds:dataset-TAB5X01 ;
        crnd-attribute:denominator  "_ALL_" ;
        crnd-attribute:unit         "NA"^^xsd:string ;
        crnd-dimension:aedecod      code:aedecod-ARTHRALGIA ;
        crnd-dimension:aesoc        code:aesoc-MUSCULOSKELETAL_AND_CONNECTIVE_T ;
        crnd-dimension:factor       code:factor-usubjid ;
        crnd-dimension:procedure    code:procedure-countdistinct ;
        crnd-dimension:saffl        code:saffl-Y ;
        crnd-dimension:trta         code:trta-Xanomeline_Low_Dose ;
        crnd-dimension:trtemfl      code:trtemfl-Y ;
        crnd-measure:measure        "2"^^xsd:double .

code:aedecod-CATARACT_OPERATION
        a                             code:Aedecod , skos:Concept ;
        rdfs:comment                  "Coded values from data source. No reconciliation against another source"@en ;
        rrdfqbcrnd0:R-selectionoperator
                "=="^^xsd:string ;
        rrdfqbcrnd0:R-selectionvalue  "CATARACT OPERATION"^^xsd:string ;
        skos:inScheme                 code:aedecod ;
        skos:prefLabel                "CATARACT OPERATION"^^xsd:string ;
        skos:topConceptOf             code:aedecod .

ds:obs158  a                        qb:Observation ;
        rdfs:comment                "Statistic for number of records/Statistics for factor with the dimensions XX"@en ;
        rdfs:label                  "158"^^xsd:string ;
        qb:dataSet                  ds:dataset-TAB5X01 ;
        crnd-attribute:denominator  "_ALL_" ;
        crnd-attribute:unit         "NA"^^xsd:string ;
        crnd-dimension:aedecod      code:aedecod-APPLICATION_SITE_ERYTHEMA ;
        crnd-dimension:aesoc        code:aesoc-GENERAL_DISORDERS_AND_ADMINISTRA ;
        crnd-dimension:factor       code:factor-quantify ;
        crnd-dimension:procedure    code:procedure-count ;
        crnd-dimension:saffl        code:saffl-Y ;
        crnd-dimension:trta         code:trta-Xanomeline_High_Dose ;
        crnd-dimension:trtemfl      code:trtemfl-Y ;
        crnd-measure:measure        "23"^^xsd:double .

code:aedecod-CELLULITIS
        a                             code:Aedecod , skos:Concept ;
        rdfs:comment                  "Coded values from data source. No reconciliation against another source"@en ;
        rrdfqbcrnd0:R-selectionoperator
                "=="^^xsd:string ;
        rrdfqbcrnd0:R-selectionvalue  "CELLULITIS"^^xsd:string ;
        skos:inScheme                 code:aedecod ;
        skos:prefLabel                "CELLULITIS"^^xsd:string ;
        skos:topConceptOf             code:aedecod .

ds:obs624  a                        qb:Observation ;
        rdfs:comment                "Statistic for number of records/Statistics for factor with the dimensions XX"@en ;
        rdfs:label                  "624"^^xsd:string ;
        qb:dataSet                  ds:dataset-TAB5X01 ;
        crnd-attribute:denominator  "_ALL_" ;
        crnd-attribute:unit         "NA"^^xsd:string ;
        crnd-dimension:aedecod      code:aedecod-BLISTER ;
        crnd-dimension:aesoc        code:aesoc-SKIN_AND_SUBCUTANEOUS_TISSUE_DIS ;
        crnd-dimension:factor       code:factor-quantify ;
        crnd-dimension:procedure    code:procedure-count ;
        crnd-dimension:saffl        code:saffl-Y ;
        crnd-dimension:trta         code:trta-Xanomeline_Low_Dose ;
        crnd-dimension:trtemfl      code:trtemfl-Y ;
        crnd-measure:measure        "8"^^xsd:double .

ds:obs379  a                        qb:Observation ;
        rdfs:comment                "Statistic for number of records/Statistics for factor with the dimensions XX"@en ;
        rdfs:label                  "379"^^xsd:string ;
        qb:dataSet                  ds:dataset-TAB5X01 ;
        crnd-attribute:denominator  "_ALL_" ;
        crnd-attribute:unit         "NA"^^xsd:string ;
        crnd-dimension:aedecod      code:aedecod-WEIGHT_DECREASED ;
        crnd-dimension:aesoc        code:aesoc-INVESTIGATIONS ;
        crnd-dimension:factor       code:factor-usubjid ;
        crnd-dimension:procedure    code:procedure-countdistinct ;
        crnd-dimension:saffl        code:saffl-Y ;
        crnd-dimension:trta         code:trta-Xanomeline_High_Dose ;
        crnd-dimension:trtemfl      code:trtemfl-Y ;
        crnd-measure:measure        "1"^^xsd:double .

ds:obs670  a                        qb:Observation ;
        rdfs:comment                "Statistic for number of records/Statistics for factor with the dimensions XX"@en ;
        rdfs:label                  "670"^^xsd:string ;
        qb:dataSet                  ds:dataset-TAB5X01 ;
        crnd-attribute:denominator  "_ALL_" ;
        crnd-attribute:unit         "NA"^^xsd:string ;
        crnd-dimension:aedecod      code:aedecod-SKIN_IRRITATION ;
        crnd-dimension:aesoc        code:aesoc-SKIN_AND_SUBCUTANEOUS_TISSUE_DIS ;
        crnd-dimension:factor       code:factor-quantify ;
        crnd-dimension:procedure    code:procedure-count ;
        crnd-dimension:saffl        code:saffl-Y ;
        crnd-dimension:trta         code:trta-Placebo ;
        crnd-dimension:trtemfl      code:trtemfl-Y ;
        crnd-measure:measure        "4"^^xsd:double .

ds:obs126  a                        qb:Observation ;
        rdfs:comment                "Statistic for number of records/Statistics for factor with the dimensions XX"@en ;
        rdfs:label                  "126"^^xsd:string ;
        qb:dataSet                  ds:dataset-TAB5X01 ;
        crnd-attribute:denominator  "_ALL_" ;
        crnd-attribute:unit         "NA"^^xsd:string ;
        crnd-dimension:aedecod      code:aedecod-NAUSEA ;
        crnd-dimension:aesoc        code:aesoc-GASTROINTESTINAL_DISORDERS ;
        crnd-dimension:factor       code:factor-quantify ;
        crnd-dimension:procedure    code:procedure-count ;
        crnd-dimension:saffl        code:saffl-Y ;
        crnd-dimension:trta         code:trta-Xanomeline_High_Dose ;
        crnd-dimension:trtemfl      code:trtemfl-Y ;
        crnd-measure:measure        "13"^^xsd:double .

ds:obs172  a                        qb:Observation ;
        rdfs:comment                "Statistic for number of records/Statistics for factor with the dimensions XX"@en ;
        rdfs:label                  "172"^^xsd:string ;
        qb:dataSet                  ds:dataset-TAB5X01 ;
        crnd-attribute:denominator  "_ALL_" ;
        crnd-attribute:unit         "NA"^^xsd:string ;
        crnd-dimension:aedecod      code:aedecod-APPLICATION_SITE_PERSPIRATION ;
        crnd-dimension:aesoc        code:aesoc-GENERAL_DISORDERS_AND_ADMINISTRA ;
        crnd-dimension:factor       code:factor-quantify ;
        crnd-dimension:procedure    code:procedure-count ;
        crnd-dimension:saffl        code:saffl-Y ;
        crnd-dimension:trta         code:trta-Xanomeline_High_Dose ;
        crnd-dimension:trtemfl      code:trtemfl-Y ;
        crnd-measure:measure        "3"^^xsd:double .

ds:obs347  a                        qb:Observation ;
        rdfs:comment                "Statistic for number of records/Statistics for factor with the dimensions XX"@en ;
        rdfs:label                  "347"^^xsd:string ;
        qb:dataSet                  ds:dataset-TAB5X01 ;
        crnd-attribute:denominator  "_ALL_" ;
        crnd-attribute:unit         "NA"^^xsd:string ;
        crnd-dimension:aedecod      code:aedecod-BLOOD_CREATINE_PHOSPHOKINASE_INC ;
        crnd-dimension:aesoc        code:aesoc-INVESTIGATIONS ;
        crnd-dimension:factor       code:factor-usubjid ;
        crnd-dimension:procedure    code:procedure-countdistinct ;
        crnd-dimension:saffl        code:saffl-Y ;
        crnd-dimension:trta         code:trta-Placebo ;
        crnd-dimension:trtemfl      code:trtemfl-Y ;
        crnd-measure:measure        "1"^^xsd:double .

code:aesoc-RESPIRATORY__THORACIC_AND_MEDIAS
        a                             code:Aesoc , skos:Concept ;
        rdfs:comment                  "Coded values from data source. No reconciliation against another source"@en ;
        rrdfqbcrnd0:R-selectionoperator
                "=="^^xsd:string ;
        rrdfqbcrnd0:R-selectionvalue  "RESPIRATORY, THORACIC AND MEDIAS"^^xsd:string ;
        skos:inScheme                 code:aesoc ;
        skos:prefLabel                "RESPIRATORY, THORACIC AND MEDIAS"^^xsd:string ;
        skos:topConceptOf             code:aesoc .

crnd-dimension:factor
        a            rdf:Property , qb:CodedProperty , qb:DimensionProperty ;
        rdfs:label   "Type of procedure (quantity, proportion...)" ;
        rdfs:range   code:Factor ;
        qb:codeList  code:factor .

ds:obs813  a                        qb:Observation ;
        rdfs:comment                "Statistic for number of records/Statistics for factor with the dimensions XX"@en ;
        rdfs:label                  "813"^^xsd:string ;
        qb:dataSet                  ds:dataset-TAB5X01 ;
        crnd-attribute:denominator  "_ALL_" ;
        crnd-attribute:unit         "NA"^^xsd:string ;
        crnd-dimension:aedecod      code:aedecod-_ALL_ ;
        crnd-dimension:aesoc        code:aesoc-RESPIRATORY__THORACIC_AND_MEDIAS ;
        crnd-dimension:factor       code:factor-usubjid ;
        crnd-dimension:procedure    code:procedure-countdistinct ;
        crnd-dimension:saffl        code:saffl-Y ;
        crnd-dimension:trta         code:trta-Xanomeline_Low_Dose ;
        crnd-dimension:trtemfl      code:trtemfl-Y ;
        crnd-measure:measure        "9"^^xsd:double .

code:aedecod-SKIN_LESION_EXCISION
        a                             code:Aedecod , skos:Concept ;
        rdfs:comment                  "Coded values from data source. No reconciliation against another source"@en ;
        rrdfqbcrnd0:R-selectionoperator
                "=="^^xsd:string ;
        rrdfqbcrnd0:R-selectionvalue  "SKIN LESION EXCISION"^^xsd:string ;
        skos:inScheme                 code:aedecod ;
        skos:prefLabel                "SKIN LESION EXCISION"^^xsd:string ;
        skos:topConceptOf             code:aedecod .

ds:obs393  a                        qb:Observation ;
        rdfs:comment                "Statistic for number of records/Statistics for factor with the dimensions XX"@en ;
        rdfs:label                  "393"^^xsd:string ;
        qb:dataSet                  ds:dataset-TAB5X01 ;
        crnd-attribute:denominator  "_ALL_" ;
        crnd-attribute:unit         "NA"^^xsd:string ;
        crnd-dimension:aedecod      code:aedecod-HYPONATRAEMIA ;
        crnd-dimension:aesoc        code:aesoc-METABOLISM_AND_NUTRITION_DISORDE ;
        crnd-dimension:factor       code:factor-usubjid ;
        crnd-dimension:procedure    code:procedure-countdistinct ;
        crnd-dimension:saffl        code:saffl-Y ;
        crnd-dimension:trta         code:trta-Placebo ;
        crnd-dimension:trtemfl      code:trtemfl-Y ;
        crnd-measure:measure        "1"^^xsd:double .

ds:obs140  a                        qb:Observation ;
        rdfs:comment                "Statistic for number of records/Statistics for factor with the dimensions XX"@en ;
        rdfs:label                  "140"^^xsd:string ;
        qb:dataSet                  ds:dataset-TAB5X01 ;
        crnd-attribute:denominator  "_ALL_" ;
        crnd-attribute:unit         "NA"^^xsd:string ;
        crnd-dimension:aedecod      code:aedecod-VOMITING ;
        crnd-dimension:aesoc        code:aesoc-GASTROINTESTINAL_DISORDERS ;
        crnd-dimension:factor       code:factor-quantify ;
        crnd-dimension:procedure    code:procedure-count ;
        crnd-dimension:saffl        code:saffl-Y ;
        crnd-dimension:trta         code:trta-Xanomeline_Low_Dose ;
        crnd-dimension:trtemfl      code:trtemfl-Y ;
        crnd-measure:measure        "4"^^xsd:double .

ds:obs568  a                        qb:Observation ;
        rdfs:comment                "Statistic for number of records/Statistics for factor with the dimensions XX"@en ;
        rdfs:label                  "568"^^xsd:string ;
        qb:dataSet                  ds:dataset-TAB5X01 ;
        crnd-attribute:denominator  "_ALL_" ;
        crnd-attribute:unit         "NA"^^xsd:string ;
        crnd-dimension:aedecod      code:aedecod-PELVIC_PAIN ;
        crnd-dimension:aesoc        code:aesoc-REPRODUCTIVE_SYSTEM_AND_BREAST_D ;
        crnd-dimension:factor       code:factor-quantify ;
        crnd-dimension:procedure    code:procedure-count ;
        crnd-dimension:saffl        code:saffl-Y ;
        crnd-dimension:trta         code:trta-Placebo ;
        crnd-dimension:trtemfl      code:trtemfl-Y ;
        crnd-measure:measure        "2"^^xsd:double .

ds:obs315  a                        qb:Observation ;
        rdfs:comment                "Statistic for number of records/Statistics for factor with the dimensions XX"@en ;
        rdfs:label                  "315"^^xsd:string ;
        qb:dataSet                  ds:dataset-TAB5X01 ;
        crnd-attribute:denominator  "_ALL_" ;
        crnd-attribute:unit         "NA"^^xsd:string ;
        crnd-dimension:aedecod      code:aedecod-EXCORIATION ;
        crnd-dimension:aesoc        code:aesoc-INJURY__POISONING_AND_PROCEDURAL ;
        crnd-dimension:factor       code:factor-usubjid ;
        crnd-dimension:procedure    code:procedure-countdistinct ;
        crnd-dimension:saffl        code:saffl-Y ;
        crnd-dimension:trta         code:trta-Xanomeline_High_Dose ;
        crnd-dimension:trtemfl      code:trtemfl-Y ;
        crnd-measure:measure        "1"^^xsd:double .

ds:obs361  a                        qb:Observation ;
        rdfs:comment                "Statistic for number of records/Statistics for factor with the dimensions XX"@en ;
        rdfs:label                  "361"^^xsd:string ;
        qb:dataSet                  ds:dataset-TAB5X01 ;
        crnd-attribute:denominator  "_ALL_" ;
        crnd-attribute:unit         "NA"^^xsd:string ;
        crnd-dimension:aedecod      code:aedecod-ELECTROCARDIOGRAM_ST_SEGMENT_DEP ;
        crnd-dimension:aesoc        code:aesoc-INVESTIGATIONS ;
        crnd-dimension:factor       code:factor-usubjid ;
        crnd-dimension:procedure    code:procedure-countdistinct ;
        crnd-dimension:saffl        code:saffl-Y ;
        crnd-dimension:trta         code:trta-Xanomeline_Low_Dose ;
        crnd-dimension:trtemfl      code:trtemfl-Y ;
        crnd-measure:measure        "1"^^xsd:double .

ds:obs789  a                        qb:Observation ;
        rdfs:comment                "Statistic for number of records/Statistics for factor with the dimensions XX"@en ;
        rdfs:label                  "789"^^xsd:string ;
        qb:dataSet                  ds:dataset-TAB5X01 ;
        crnd-attribute:denominator  "_ALL_" ;
        crnd-attribute:unit         "NA"^^xsd:string ;
        crnd-dimension:aedecod      code:aedecod-_ALL_ ;
        crnd-dimension:aesoc        code:aesoc-NERVOUS_SYSTEM_DISORDERS ;
        crnd-dimension:factor       code:factor-usubjid ;
        crnd-dimension:procedure    code:procedure-countdistinct ;
        crnd-dimension:saffl        code:saffl-Y ;
        crnd-dimension:trta         code:trta-Xanomeline_High_Dose ;
        crnd-dimension:trtemfl      code:trtemfl-Y ;
        crnd-measure:measure        "25"^^xsd:double .

ds:obs536  a                        qb:Observation ;
        rdfs:comment                "Statistic for number of records/Statistics for factor with the dimensions XX"@en ;
        rdfs:label                  "536"^^xsd:string ;
        qb:dataSet                  ds:dataset-TAB5X01 ;
        crnd-attribute:denominator  "_ALL_" ;
        crnd-attribute:unit         "NA"^^xsd:string ;
        crnd-dimension:aedecod      code:aedecod-LIBIDO_DECREASED ;
        crnd-dimension:aesoc        code:aesoc-PSYCHIATRIC_DISORDERS ;
        crnd-dimension:factor       code:factor-quantify ;
        crnd-dimension:procedure    code:procedure-count ;
        crnd-dimension:saffl        code:saffl-Y ;
        crnd-dimension:trta         code:trta-Xanomeline_High_Dose ;
        crnd-dimension:trtemfl      code:trtemfl-Y ;
        crnd-measure:measure        "1"^^xsd:double .

code:aedecod-SOMNOLENCE
        a                             code:Aedecod , skos:Concept ;
        rdfs:comment                  "Coded values from data source. No reconciliation against another source"@en ;
        rrdfqbcrnd0:R-selectionoperator
                "=="^^xsd:string ;
        rrdfqbcrnd0:R-selectionvalue  "SOMNOLENCE"^^xsd:string ;
        skos:inScheme                 code:aedecod ;
        skos:prefLabel                "SOMNOLENCE"^^xsd:string ;
        skos:topConceptOf             code:aedecod .

ds:obs582  a                        qb:Observation ;
        rdfs:comment                "Statistic for number of records/Statistics for factor with the dimensions XX"@en ;
        rdfs:label                  "582"^^xsd:string ;
        qb:dataSet                  ds:dataset-TAB5X01 ;
        crnd-attribute:denominator  "_ALL_" ;
        crnd-attribute:unit         "NA"^^xsd:string ;
        crnd-dimension:aedecod      code:aedecod-DYSPNOEA ;
        crnd-dimension:aesoc        code:aesoc-RESPIRATORY__THORACIC_AND_MEDIAS ;
        crnd-dimension:factor       code:factor-quantify ;
        crnd-dimension:procedure    code:procedure-count ;
        crnd-dimension:saffl        code:saffl-Y ;
        crnd-dimension:trta         code:trta-Xanomeline_High_Dose ;
        crnd-dimension:trtemfl      code:trtemfl-Y ;
        crnd-measure:measure        "1"^^xsd:double .

ds:obs038  a                        qb:Observation ;
        rdfs:comment                "Statistic for number of records/Statistics for factor with the dimensions XX"@en ;
        rdfs:label                  "38"^^xsd:string ;
        qb:dataSet                  ds:dataset-TAB5X01 ;
        crnd-attribute:denominator  "_ALL_" ;
        crnd-attribute:unit         "NA"^^xsd:string ;
        crnd-dimension:aedecod      code:aedecod-PALPITATIONS ;
        crnd-dimension:aesoc        code:aesoc-CARDIAC_DISORDERS ;
        crnd-dimension:factor       code:factor-quantify ;
        crnd-dimension:procedure    code:procedure-count ;
        crnd-dimension:saffl        code:saffl-Y ;
        crnd-dimension:trta         code:trta-Xanomeline_Low_Dose ;
        crnd-dimension:trtemfl      code:trtemfl-Y ;
        crnd-measure:measure        "2"^^xsd:double .

code:aedecod-OEDEMA  a                code:Aedecod , skos:Concept ;
        rdfs:comment                  "Coded values from data source. No reconciliation against another source"@en ;
        rrdfqbcrnd0:R-selectionoperator
                "=="^^xsd:string ;
        rrdfqbcrnd0:R-selectionvalue  "OEDEMA"^^xsd:string ;
        skos:inScheme                 code:aedecod ;
        skos:prefLabel                "OEDEMA"^^xsd:string ;
        skos:topConceptOf             code:aedecod .

ds:obs757  a                        qb:Observation ;
        rdfs:comment                "Statistic for number of records/Statistics for factor with the dimensions XX"@en ;
        rdfs:label                  "757"^^xsd:string ;
        qb:dataSet                  ds:dataset-TAB5X01 ;
        crnd-attribute:denominator  "_ALL_" ;
        crnd-attribute:unit         "NA"^^xsd:string ;
        crnd-dimension:aedecod      code:aedecod-_ALL_ ;
        crnd-dimension:aesoc        code:aesoc-INFECTIONS_AND_INFESTATIONS ;
        crnd-dimension:factor       code:factor-usubjid ;
        crnd-dimension:procedure    code:procedure-countdistinct ;
        crnd-dimension:saffl        code:saffl-Y ;
        crnd-dimension:trta         code:trta-Xanomeline_Low_Dose ;
        crnd-dimension:trtemfl      code:trtemfl-Y ;
        crnd-measure:measure        "9"^^xsd:double .

ds:obs504  a                        qb:Observation ;
        rdfs:comment                "Statistic for number of records/Statistics for factor with the dimensions XX"@en ;
        rdfs:label                  "504"^^xsd:string ;
        qb:dataSet                  ds:dataset-TAB5X01 ;
        crnd-attribute:denominator  "_ALL_" ;
        crnd-attribute:unit         "NA"^^xsd:string ;
        crnd-dimension:aedecod      code:aedecod-ANXIETY ;
        crnd-dimension:aesoc        code:aesoc-PSYCHIATRIC_DISORDERS ;
        crnd-dimension:factor       code:factor-quantify ;
        crnd-dimension:procedure    code:procedure-count ;
        crnd-dimension:saffl        code:saffl-Y ;
        crnd-dimension:trta         code:trta-Xanomeline_Low_Dose ;
        crnd-dimension:trtemfl      code:trtemfl-Y ;
        crnd-measure:measure        "4"^^xsd:double .

code:aedecod-DEHYDRATION
        a                             code:Aedecod , skos:Concept ;
        rdfs:comment                  "Coded values from data source. No reconciliation against another source"@en ;
        rrdfqbcrnd0:R-selectionoperator
                "=="^^xsd:string ;
        rrdfqbcrnd0:R-selectionvalue  "DEHYDRATION"^^xsd:string ;
        skos:inScheme                 code:aedecod ;
        skos:prefLabel                "DEHYDRATION"^^xsd:string ;
        skos:topConceptOf             code:aedecod .

ds:obs084  a                        qb:Observation ;
        rdfs:comment                "Statistic for number of records/Statistics for factor with the dimensions XX"@en ;
        rdfs:label                  "84"^^xsd:string ;
        qb:dataSet                  ds:dataset-TAB5X01 ;
        crnd-attribute:denominator  "_ALL_" ;
        crnd-attribute:unit         "NA"^^xsd:string ;
        crnd-dimension:aedecod      code:aedecod-EYE_PRURITUS ;
        crnd-dimension:aesoc        code:aesoc-EYE_DISORDERS ;
        crnd-dimension:factor       code:factor-quantify ;
        crnd-dimension:procedure    code:procedure-count ;
        crnd-dimension:saffl        code:saffl-Y ;
        crnd-dimension:trta         code:trta-Placebo ;
        crnd-dimension:trtemfl      code:trtemfl-Y ;
        crnd-measure:measure        "1"^^xsd:double .

ds:obs550  a                        qb:Observation ;
        rdfs:comment                "Statistic for number of records/Statistics for factor with the dimensions XX"@en ;
        rdfs:label                  "550"^^xsd:string ;
        qb:dataSet                  ds:dataset-TAB5X01 ;
        crnd-attribute:denominator  "_ALL_" ;
        crnd-attribute:unit         "NA"^^xsd:string ;
        crnd-dimension:aedecod      code:aedecod-INCONTINENCE ;
        crnd-dimension:aesoc        code:aesoc-RENAL_AND_URINARY_DISORDERS ;
        crnd-dimension:factor       code:factor-quantify ;
        crnd-dimension:procedure    code:procedure-count ;
        crnd-dimension:saffl        code:saffl-Y ;
        crnd-dimension:trta         code:trta-Xanomeline_Low_Dose ;
        crnd-dimension:trtemfl      code:trtemfl-Y ;
        crnd-measure:measure        "1"^^xsd:double .

ds:obs259  a                        qb:Observation ;
        rdfs:comment                "Statistic for number of records/Statistics for factor with the dimensions XX"@en ;
        rdfs:label                  "259"^^xsd:string ;
        qb:dataSet                  ds:dataset-TAB5X01 ;
        crnd-attribute:denominator  "_ALL_" ;
        crnd-attribute:unit         "NA"^^xsd:string ;
        crnd-dimension:aedecod      code:aedecod-CELLULITIS ;
        crnd-dimension:aesoc        code:aesoc-INFECTIONS_AND_INFESTATIONS ;
        crnd-dimension:factor       code:factor-usubjid ;
        crnd-dimension:procedure    code:procedure-countdistinct ;
        crnd-dimension:saffl        code:saffl-Y ;
        crnd-dimension:trta         code:trta-Xanomeline_Low_Dose ;
        crnd-dimension:trtemfl      code:trtemfl-Y ;
        crnd-measure:measure        "1"^^xsd:double .

code:aedecod-FLANK_PAIN
        a                             code:Aedecod , skos:Concept ;
        rdfs:comment                  "Coded values from data source. No reconciliation against another source"@en ;
        rrdfqbcrnd0:R-selectionoperator
                "=="^^xsd:string ;
        rrdfqbcrnd0:R-selectionvalue  "FLANK PAIN"^^xsd:string ;
        skos:inScheme                 code:aedecod ;
        skos:prefLabel                "FLANK PAIN"^^xsd:string ;
        skos:topConceptOf             code:aedecod .

ds:obs006  a                        qb:Observation ;
        rdfs:comment                "Statistic for number of records/Statistics for factor with the dimensions XX"@en ;
        rdfs:label                  "6"^^xsd:string ;
        qb:dataSet                  ds:dataset-TAB5X01 ;
        crnd-attribute:denominator  "_ALL_" ;
        crnd-attribute:unit         "NA"^^xsd:string ;
        crnd-dimension:aedecod      code:aedecod-ATRIAL_FIBRILLATION ;
        crnd-dimension:aesoc        code:aesoc-CARDIAC_DISORDERS ;
        crnd-dimension:factor       code:factor-quantify ;
        crnd-dimension:procedure    code:procedure-count ;
        crnd-dimension:saffl        code:saffl-Y ;
        crnd-dimension:trta         code:trta-Xanomeline_Low_Dose ;
        crnd-dimension:trtemfl      code:trtemfl-Y ;
        crnd-measure:measure        "1"^^xsd:double .

ds:obs725  a                        qb:Observation ;
        rdfs:comment                "Statistic for number of records/Statistics for factor with the dimensions XX"@en ;
        rdfs:label                  "725"^^xsd:string ;
        qb:dataSet                  ds:dataset-TAB5X01 ;
        crnd-attribute:denominator  "_ALL_" ;
        crnd-attribute:unit         "NA"^^xsd:string ;
        crnd-dimension:aedecod      code:aedecod-_ALL_ ;
        crnd-dimension:aesoc        code:aesoc-EAR_AND_LABYRINTH_DISORDERS ;
        crnd-dimension:factor       code:factor-usubjid ;
        crnd-dimension:procedure    code:procedure-countdistinct ;
        crnd-dimension:saffl        code:saffl-Y ;
        crnd-dimension:trta         code:trta-Placebo ;
        crnd-dimension:trtemfl      code:trtemfl-Y ;
        crnd-measure:measure        "1"^^xsd:double .

ds:obs052  a                        qb:Observation ;
        rdfs:comment                "Statistic for number of records/Statistics for factor with the dimensions XX"@en ;
        rdfs:label                  "52"^^xsd:string ;
        qb:dataSet                  ds:dataset-TAB5X01 ;
        crnd-attribute:denominator  "_ALL_" ;
        crnd-attribute:unit         "NA"^^xsd:string ;
        crnd-dimension:aedecod      code:aedecod-SUPRAVENTRICULAR_EXTRASYSTOLES ;
        crnd-dimension:aesoc        code:aesoc-CARDIAC_DISORDERS ;
        crnd-dimension:factor       code:factor-quantify ;
        crnd-dimension:procedure    code:procedure-count ;
        crnd-dimension:saffl        code:saffl-Y ;
        crnd-dimension:trta         code:trta-Xanomeline_Low_Dose ;
        crnd-dimension:trtemfl      code:trtemfl-Y ;
        crnd-measure:measure        "2"^^xsd:double .

ds:obs771  a                        qb:Observation ;
        rdfs:comment                "Statistic for number of records/Statistics for factor with the dimensions XX"@en ;
        rdfs:label                  "771"^^xsd:string ;
        qb:dataSet                  ds:dataset-TAB5X01 ;
        crnd-attribute:denominator  "_ALL_" ;
        crnd-attribute:unit         "NA"^^xsd:string ;
        crnd-dimension:aedecod      code:aedecod-_ALL_ ;
        crnd-dimension:aesoc        code:aesoc-METABOLISM_AND_NUTRITION_DISORDE ;
        crnd-dimension:factor       code:factor-usubjid ;
        crnd-dimension:procedure    code:procedure-countdistinct ;
        crnd-dimension:saffl        code:saffl-Y ;
        crnd-dimension:trta         code:trta-Placebo ;
        crnd-dimension:trtemfl      code:trtemfl-Y ;
        crnd-measure:measure        "6"^^xsd:double .

ds:obs227  a                        qb:Observation ;
        rdfs:comment                "Statistic for number of records/Statistics for factor with the dimensions XX"@en ;
        rdfs:label                  "227"^^xsd:string ;
        qb:dataSet                  ds:dataset-TAB5X01 ;
        crnd-attribute:denominator  "_ALL_" ;
        crnd-attribute:unit         "NA"^^xsd:string ;
        crnd-dimension:aedecod      code:aedecod-MALAISE ;
        crnd-dimension:aesoc        code:aesoc-GENERAL_DISORDERS_AND_ADMINISTRA ;
        crnd-dimension:factor       code:factor-usubjid ;
        crnd-dimension:procedure    code:procedure-countdistinct ;
        crnd-dimension:saffl        code:saffl-Y ;
        crnd-dimension:trta         code:trta-Xanomeline_Low_Dose ;
        crnd-dimension:trtemfl      code:trtemfl-Y ;
        crnd-measure:measure        "1"^^xsd:double .

code:aedecod-SECRETION_DISCHARGE
        a                             code:Aedecod , skos:Concept ;
        rdfs:comment                  "Coded values from data source. No reconciliation against another source"@en ;
        rrdfqbcrnd0:R-selectionoperator
                "=="^^xsd:string ;
        rrdfqbcrnd0:R-selectionvalue  "SECRETION DISCHARGE"^^xsd:string ;
        skos:inScheme                 code:aedecod ;
        skos:prefLabel                "SECRETION DISCHARGE"^^xsd:string ;
        skos:topConceptOf             code:aedecod .

ds:obs273  a                        qb:Observation ;
        rdfs:comment                "Statistic for number of records/Statistics for factor with the dimensions XX"@en ;
        rdfs:label                  "273"^^xsd:string ;
        qb:dataSet                  ds:dataset-TAB5X01 ;
        crnd-attribute:denominator  "_ALL_" ;
        crnd-attribute:unit         "NA"^^xsd:string ;
        crnd-dimension:aedecod      code:aedecod-INFLUENZA ;
        crnd-dimension:aesoc        code:aesoc-INFECTIONS_AND_INFESTATIONS ;
        crnd-dimension:factor       code:factor-usubjid ;
        crnd-dimension:procedure    code:procedure-countdistinct ;
        crnd-dimension:saffl        code:saffl-Y ;
        crnd-dimension:trta         code:trta-Placebo ;
        crnd-dimension:trtemfl      code:trtemfl-Y ;
        crnd-measure:measure        "1"^^xsd:double .

ds:obs020  a                        qb:Observation ;
        rdfs:comment                "Statistic for number of records/Statistics for factor with the dimensions XX"@en ;
        rdfs:label                  "20"^^xsd:string ;
        qb:dataSet                  ds:dataset-TAB5X01 ;
        crnd-attribute:denominator  "_ALL_" ;
        crnd-attribute:unit         "NA"^^xsd:string ;
        crnd-dimension:aedecod      code:aedecod-BRADYCARDIA ;
        crnd-dimension:aesoc        code:aesoc-CARDIAC_DISORDERS ;
        crnd-dimension:factor       code:factor-quantify ;
        crnd-dimension:procedure    code:procedure-count ;
        crnd-dimension:saffl        code:saffl-Y ;
        crnd-dimension:trta         code:trta-Placebo ;
        crnd-dimension:trtemfl      code:trtemfl-Y ;
        crnd-measure:measure        "4"^^xsd:double .

ds:obs448  a                        qb:Observation ;
        rdfs:comment                "Statistic for number of records/Statistics for factor with the dimensions XX"@en ;
        rdfs:label                  "448"^^xsd:string ;
        qb:dataSet                  ds:dataset-TAB5X01 ;
        crnd-attribute:denominator  "_ALL_" ;
        crnd-attribute:unit         "NA"^^xsd:string ;
        crnd-dimension:aedecod      code:aedecod-DIZZINESS ;
        crnd-dimension:aesoc        code:aesoc-NERVOUS_SYSTEM_DISORDERS ;
        crnd-dimension:factor       code:factor-quantify ;
        crnd-dimension:procedure    code:procedure-count ;
        crnd-dimension:saffl        code:saffl-Y ;
        crnd-dimension:trta         code:trta-Placebo ;
        crnd-dimension:trtemfl      code:trtemfl-Y ;
        crnd-measure:measure        "3"^^xsd:double .

ds:obs494  a                        qb:Observation ;
        rdfs:comment                "Statistic for number of records/Statistics for factor with the dimensions XX"@en ;
        rdfs:label                  "494"^^xsd:string ;
        qb:dataSet                  ds:dataset-TAB5X01 ;
        crnd-attribute:denominator  "_ALL_" ;
        crnd-attribute:unit         "NA"^^xsd:string ;
        crnd-dimension:aedecod      code:aedecod-TRANSIENT_ISCHAEMIC_ATTACK ;
        crnd-dimension:aesoc        code:aesoc-NERVOUS_SYSTEM_DISORDERS ;
        crnd-dimension:factor       code:factor-quantify ;
        crnd-dimension:procedure    code:procedure-count ;
        crnd-dimension:saffl        code:saffl-Y ;
        crnd-dimension:trta         code:trta-Xanomeline_High_Dose ;
        crnd-dimension:trtemfl      code:trtemfl-Y ;
        crnd-measure:measure        "1"^^xsd:double .

ds:obs241  a                        qb:Observation ;
        rdfs:comment                "Statistic for number of records/Statistics for factor with the dimensions XX"@en ;
        rdfs:label                  "241"^^xsd:string ;
        qb:dataSet                  ds:dataset-TAB5X01 ;
        crnd-attribute:denominator  "_ALL_" ;
        crnd-attribute:unit         "NA"^^xsd:string ;
        crnd-dimension:aedecod      code:aedecod-PYREXIA ;
        crnd-dimension:aesoc        code:aesoc-GENERAL_DISORDERS_AND_ADMINISTRA ;
        crnd-dimension:factor       code:factor-usubjid ;
        crnd-dimension:procedure    code:procedure-countdistinct ;
        crnd-dimension:saffl        code:saffl-Y ;
        crnd-dimension:trta         code:trta-Placebo ;
        crnd-dimension:trtemfl      code:trtemfl-Y ;
        crnd-measure:measure        "2"^^xsd:double .

ds:obs669  a                        qb:Observation ;
        rdfs:comment                "Statistic for number of records/Statistics for factor with the dimensions XX"@en ;
        rdfs:label                  "669"^^xsd:string ;
        qb:dataSet                  ds:dataset-TAB5X01 ;
        crnd-attribute:denominator  "_ALL_" ;
        crnd-attribute:unit         "NA"^^xsd:string ;
        crnd-dimension:aedecod      code:aedecod-SKIN_IRRITATION ;
        crnd-dimension:aesoc        code:aesoc-SKIN_AND_SUBCUTANEOUS_TISSUE_DIS ;
        crnd-dimension:factor       code:factor-usubjid ;
        crnd-dimension:procedure    code:procedure-countdistinct ;
        crnd-dimension:saffl        code:saffl-Y ;
        crnd-dimension:trta         code:trta-Placebo ;
        crnd-dimension:trtemfl      code:trtemfl-Y ;
        crnd-measure:measure        "3"^^xsd:double .

ds:obs416  a                        qb:Observation ;
        rdfs:comment                "Statistic for number of records/Statistics for factor with the dimensions XX"@en ;
        rdfs:label                  "416"^^xsd:string ;
        qb:dataSet                  ds:dataset-TAB5X01 ;
        crnd-attribute:denominator  "_ALL_" ;
        crnd-attribute:unit         "NA"^^xsd:string ;
        crnd-dimension:aedecod      code:aedecod-MUSCLE_SPASMS ;
        crnd-dimension:aesoc        code:aesoc-MUSCULOSKELETAL_AND_CONNECTIVE_T ;
        crnd-dimension:factor       code:factor-quantify ;
        crnd-dimension:procedure    code:procedure-count ;
        crnd-dimension:saffl        code:saffl-Y ;
        crnd-dimension:trta         code:trta-Xanomeline_High_Dose ;
        crnd-dimension:trtemfl      code:trtemfl-Y ;
        crnd-measure:measure        "2"^^xsd:double .

ds:obs462  a                        qb:Observation ;
        rdfs:comment                "Statistic for number of records/Statistics for factor with the dimensions XX"@en ;
        rdfs:label                  "462"^^xsd:string ;
        qb:dataSet                  ds:dataset-TAB5X01 ;
        crnd-attribute:denominator  "_ALL_" ;
        crnd-attribute:unit         "NA"^^xsd:string ;
        crnd-dimension:aedecod      code:aedecod-HYPERSOMNIA ;
        crnd-dimension:aesoc        code:aesoc-NERVOUS_SYSTEM_DISORDERS ;
        crnd-dimension:factor       code:factor-quantify ;
        crnd-dimension:procedure    code:procedure-count ;
        crnd-dimension:saffl        code:saffl-Y ;
        crnd-dimension:trta         code:trta-Xanomeline_High_Dose ;
        crnd-dimension:trtemfl      code:trtemfl-Y ;
        crnd-measure:measure        "1"^^xsd:double .

ds:obs637  a                        qb:Observation ;
        rdfs:comment                "Statistic for number of records/Statistics for factor with the dimensions XX"@en ;
        rdfs:label                  "637"^^xsd:string ;
        qb:dataSet                  ds:dataset-TAB5X01 ;
        crnd-attribute:denominator  "_ALL_" ;
        crnd-attribute:unit         "NA"^^xsd:string ;
        crnd-dimension:aedecod      code:aedecod-HYPERHIDROSIS ;
        crnd-dimension:aesoc        code:aesoc-SKIN_AND_SUBCUTANEOUS_TISSUE_DIS ;
        crnd-dimension:factor       code:factor-usubjid ;
        crnd-dimension:procedure    code:procedure-countdistinct ;
        crnd-dimension:saffl        code:saffl-Y ;
        crnd-dimension:trta         code:trta-Placebo ;
        crnd-dimension:trtemfl      code:trtemfl-Y ;
        crnd-measure:measure        "2"^^xsd:double .

crnd-attribute:denominator
        a           rdf:Property , qb:AttributeProperty ;
        rdfs:label  "Denominator for a proportion (oskr) subset on which a statistic is based" .

ds:obs683  a                        qb:Observation ;
        rdfs:comment                "Statistic for number of records/Statistics for factor with the dimensions XX"@en ;
        rdfs:label                  "683"^^xsd:string ;
        qb:dataSet                  ds:dataset-TAB5X01 ;
        crnd-attribute:denominator  "_ALL_" ;
        crnd-attribute:unit         "NA"^^xsd:string ;
        crnd-dimension:aedecod      code:aedecod-ALCOHOL_USE ;
        crnd-dimension:aesoc        code:aesoc-SOCIAL_CIRCUMSTANCES ;
        crnd-dimension:factor       code:factor-usubjid ;
        crnd-dimension:procedure    code:procedure-countdistinct ;
        crnd-dimension:saffl        code:saffl-Y ;
        crnd-dimension:trta         code:trta-Xanomeline_High_Dose ;
        crnd-dimension:trtemfl      code:trtemfl-Y ;
        crnd-measure:measure        "1"^^xsd:double .

code:aedecod-SYNCOPE  a               code:Aedecod , skos:Concept ;
        rdfs:comment                  "Coded values from data source. No reconciliation against another source"@en ;
        rrdfqbcrnd0:R-selectionoperator
                "=="^^xsd:string ;
        rrdfqbcrnd0:R-selectionvalue  "SYNCOPE"^^xsd:string ;
        skos:inScheme                 code:aedecod ;
        skos:prefLabel                "SYNCOPE"^^xsd:string ;
        skos:topConceptOf             code:aedecod .

ds:obs139  a                        qb:Observation ;
        rdfs:comment                "Statistic for number of records/Statistics for factor with the dimensions XX"@en ;
        rdfs:label                  "139"^^xsd:string ;
        qb:dataSet                  ds:dataset-TAB5X01 ;
        crnd-attribute:denominator  "_ALL_" ;
        crnd-attribute:unit         "NA"^^xsd:string ;
        crnd-dimension:aedecod      code:aedecod-VOMITING ;
        crnd-dimension:aesoc        code:aesoc-GASTROINTESTINAL_DISORDERS ;
        crnd-dimension:factor       code:factor-usubjid ;
        crnd-dimension:procedure    code:procedure-countdistinct ;
        crnd-dimension:saffl        code:saffl-Y ;
        crnd-dimension:trta         code:trta-Xanomeline_Low_Dose ;
        crnd-dimension:trtemfl      code:trtemfl-Y ;
        crnd-measure:measure        "3"^^xsd:double .

ds:obs430  a                        qb:Observation ;
        rdfs:comment                "Statistic for number of records/Statistics for factor with the dimensions XX"@en ;
        rdfs:label                  "430"^^xsd:string ;
        qb:dataSet                  ds:dataset-TAB5X01 ;
        crnd-attribute:denominator  "_ALL_" ;
        crnd-attribute:unit         "NA"^^xsd:string ;
        crnd-dimension:aedecod      code:aedecod-COLON_CANCER ;
        crnd-dimension:aesoc        code:aesoc-NEOPLASMS_BENIGN__MALIGNANT_AND ;
        crnd-dimension:factor       code:factor-quantify ;
        crnd-dimension:procedure    code:procedure-count ;
        crnd-dimension:saffl        code:saffl-Y ;
        crnd-dimension:trta         code:trta-Xanomeline_Low_Dose ;
        crnd-dimension:trtemfl      code:trtemfl-Y ;
        crnd-measure:measure        "1"^^xsd:double .

ds:obs605  a                        qb:Observation ;
        rdfs:comment                "Statistic for number of records/Statistics for factor with the dimensions XX"@en ;
        rdfs:label                  "605"^^xsd:string ;
        qb:dataSet                  ds:dataset-TAB5X01 ;
        crnd-attribute:denominator  "_ALL_" ;
        crnd-attribute:unit         "NA"^^xsd:string ;
        crnd-dimension:aedecod      code:aedecod-POSTNASAL_DRIP ;
        crnd-dimension:aesoc        code:aesoc-RESPIRATORY__THORACIC_AND_MEDIAS ;
        crnd-dimension:factor       code:factor-usubjid ;
        crnd-dimension:procedure    code:procedure-countdistinct ;
        crnd-dimension:saffl        code:saffl-Y ;
        crnd-dimension:trta         code:trta-Placebo ;
        crnd-dimension:trtemfl      code:trtemfl-Y ;
        crnd-measure:measure        "1"^^xsd:double .

ds:obs185  a                        qb:Observation ;
        rdfs:comment                "Statistic for number of records/Statistics for factor with the dimensions XX"@en ;
        rdfs:label                  "185"^^xsd:string ;
        qb:dataSet                  ds:dataset-TAB5X01 ;
        crnd-attribute:denominator  "_ALL_" ;
        crnd-attribute:unit         "NA"^^xsd:string ;
        crnd-dimension:aedecod      code:aedecod-APPLICATION_SITE_SWELLING ;
        crnd-dimension:aesoc        code:aesoc-GENERAL_DISORDERS_AND_ADMINISTRA ;
        crnd-dimension:factor       code:factor-usubjid ;
        crnd-dimension:procedure    code:procedure-countdistinct ;
        crnd-dimension:saffl        code:saffl-Y ;
        crnd-dimension:trta         code:trta-Xanomeline_Low_Dose ;
        crnd-dimension:trtemfl      code:trtemfl-Y ;
        crnd-measure:measure        "1"^^xsd:double .

code:aesoc-INFECTIONS_AND_INFESTATIONS
        a                             code:Aesoc , skos:Concept ;
        rdfs:comment                  "Coded values from data source. No reconciliation against another source"@en ;
        rrdfqbcrnd0:R-selectionoperator
                "=="^^xsd:string ;
        rrdfqbcrnd0:R-selectionvalue  "INFECTIONS AND INFESTATIONS"^^xsd:string ;
        skos:inScheme                 code:aesoc ;
        skos:prefLabel                "INFECTIONS AND INFESTATIONS"^^xsd:string ;
        skos:topConceptOf             code:aesoc .

ds:obs651  a                        qb:Observation ;
        rdfs:comment                "Statistic for number of records/Statistics for factor with the dimensions XX"@en ;
        rdfs:label                  "651"^^xsd:string ;
        qb:dataSet                  ds:dataset-TAB5X01 ;
        crnd-attribute:denominator  "_ALL_" ;
        crnd-attribute:unit         "NA"^^xsd:string ;
        crnd-dimension:aedecod      code:aedecod-PRURITUS_GENERALISED ;
        crnd-dimension:aesoc        code:aesoc-SKIN_AND_SUBCUTANEOUS_TISSUE_DIS ;
        crnd-dimension:factor       code:factor-usubjid ;
        crnd-dimension:procedure    code:procedure-countdistinct ;
        crnd-dimension:saffl        code:saffl-Y ;
        crnd-dimension:trta         code:trta-Xanomeline_Low_Dose ;
        crnd-dimension:trtemfl      code:trtemfl-Y ;
        crnd-measure:measure        "1"^^xsd:double .

ds:obs107  a                        qb:Observation ;
        rdfs:comment                "Statistic for number of records/Statistics for factor with the dimensions XX"@en ;
        rdfs:label                  "107"^^xsd:string ;
        qb:dataSet                  ds:dataset-TAB5X01 ;
        crnd-attribute:denominator  "_ALL_" ;
        crnd-attribute:unit         "NA"^^xsd:string ;
        crnd-dimension:aedecod      code:aedecod-DYSPEPSIA ;
        crnd-dimension:aesoc        code:aesoc-GASTROINTESTINAL_DISORDERS ;
        crnd-dimension:factor       code:factor-usubjid ;
        crnd-dimension:procedure    code:procedure-countdistinct ;
        crnd-dimension:saffl        code:saffl-Y ;
        crnd-dimension:trta         code:trta-Placebo ;
        crnd-dimension:trtemfl      code:trtemfl-Y ;
        crnd-measure:measure        "1"^^xsd:double .

code:aedecod-SUPRAVENTRICULAR_EXTRASYSTOLES
        a                             code:Aedecod , skos:Concept ;
        rdfs:comment                  "Coded values from data source. No reconciliation against another source"@en ;
        rrdfqbcrnd0:R-selectionoperator
                "=="^^xsd:string ;
        rrdfqbcrnd0:R-selectionvalue  "SUPRAVENTRICULAR EXTRASYSTOLES"^^xsd:string ;
        skos:inScheme                 code:aedecod ;
        skos:prefLabel                "SUPRAVENTRICULAR EXTRASYSTOLES"^^xsd:string ;
        skos:topConceptOf             code:aedecod .

ds:obs826  a                        qb:Observation ;
        rdfs:comment                "Statistic for number of records/Statistics for factor with the dimensions XX"@en ;
        rdfs:label                  "826"^^xsd:string ;
        qb:dataSet                  ds:dataset-TAB5X01 ;
        crnd-attribute:denominator  "_ALL_" ;
        crnd-attribute:unit         "NA"^^xsd:string ;
        crnd-dimension:aedecod      code:aedecod-_ALL_ ;
        crnd-dimension:aesoc        code:aesoc-SURGICAL_AND_MEDICAL_PROCEDURES ;
        crnd-dimension:factor       code:factor-quantify ;
        crnd-dimension:procedure    code:procedure-count ;
        crnd-dimension:saffl        code:saffl-Y ;
        crnd-dimension:trta         code:trta-Xanomeline_High_Dose ;
        crnd-dimension:trtemfl      code:trtemfl-Y ;
        crnd-measure:measure        "2"^^xsd:double .

ds:obs153  a                        qb:Observation ;
        rdfs:comment                "Statistic for number of records/Statistics for factor with the dimensions XX"@en ;
        rdfs:label                  "153"^^xsd:string ;
        qb:dataSet                  ds:dataset-TAB5X01 ;
        crnd-attribute:denominator  "_ALL_" ;
        crnd-attribute:unit         "NA"^^xsd:string ;
        crnd-dimension:aedecod      code:aedecod-APPLICATION_SITE_DISCOLOURATION ;
        crnd-dimension:aesoc        code:aesoc-GENERAL_DISORDERS_AND_ADMINISTRA ;
        crnd-dimension:factor       code:factor-usubjid ;
        crnd-dimension:procedure    code:procedure-countdistinct ;
        crnd-dimension:saffl        code:saffl-Y ;
        crnd-dimension:trta         code:trta-Xanomeline_Low_Dose ;
        crnd-dimension:trtemfl      code:trtemfl-Y ;
        crnd-measure:measure        "1"^^xsd:double .

ds:obs328  a                        qb:Observation ;
        rdfs:comment                "Statistic for number of records/Statistics for factor with the dimensions XX"@en ;
        rdfs:label                  "328"^^xsd:string ;
        qb:dataSet                  ds:dataset-TAB5X01 ;
        crnd-attribute:denominator  "_ALL_" ;
        crnd-attribute:unit         "NA"^^xsd:string ;
        crnd-dimension:aedecod      code:aedecod-HIP_FRACTURE ;
        crnd-dimension:aesoc        code:aesoc-INJURY__POISONING_AND_PROCEDURAL ;
        crnd-dimension:factor       code:factor-quantify ;
        crnd-dimension:procedure    code:procedure-count ;
        crnd-dimension:saffl        code:saffl-Y ;
        crnd-dimension:trta         code:trta-Placebo ;
        crnd-dimension:trtemfl      code:trtemfl-Y ;
        crnd-measure:measure        "2"^^xsd:double .

ds:obs374  a                        qb:Observation ;
        rdfs:comment                "Statistic for number of records/Statistics for factor with the dimensions XX"@en ;
        rdfs:label                  "374"^^xsd:string ;
        qb:dataSet                  ds:dataset-TAB5X01 ;
        crnd-attribute:denominator  "_ALL_" ;
        crnd-attribute:unit         "NA"^^xsd:string ;
        crnd-dimension:aedecod      code:aedecod-HEART_RATE_INCREASED ;
        crnd-dimension:aesoc        code:aesoc-INVESTIGATIONS ;
        crnd-dimension:factor       code:factor-quantify ;
        crnd-dimension:procedure    code:procedure-count ;
        crnd-dimension:saffl        code:saffl-Y ;
        crnd-dimension:trta         code:trta-Placebo ;
        crnd-dimension:trtemfl      code:trtemfl-Y ;
        crnd-measure:measure        "2"^^xsd:double .

ds:obs121  a                        qb:Observation ;
        rdfs:comment                "Statistic for number of records/Statistics for factor with the dimensions XX"@en ;
        rdfs:label                  "121"^^xsd:string ;
        qb:dataSet                  ds:dataset-TAB5X01 ;
        crnd-attribute:denominator  "_ALL_" ;
        crnd-attribute:unit         "NA"^^xsd:string ;
        crnd-dimension:aedecod      code:aedecod-HIATUS_HERNIA ;
        crnd-dimension:aesoc        code:aesoc-GASTROINTESTINAL_DISORDERS ;
        crnd-dimension:factor       code:factor-usubjid ;
        crnd-dimension:procedure    code:procedure-countdistinct ;
        crnd-dimension:saffl        code:saffl-Y ;
        crnd-dimension:trta         code:trta-Placebo ;
        crnd-dimension:trtemfl      code:trtemfl-Y ;
        crnd-measure:measure        "1"^^xsd:double .

ds:obs549  a                        qb:Observation ;
        rdfs:comment                "Statistic for number of records/Statistics for factor with the dimensions XX"@en ;
        rdfs:label                  "549"^^xsd:string ;
        qb:dataSet                  ds:dataset-TAB5X01 ;
        crnd-attribute:denominator  "_ALL_" ;
        crnd-attribute:unit         "NA"^^xsd:string ;
        crnd-dimension:aedecod      code:aedecod-INCONTINENCE ;
        crnd-dimension:aesoc        code:aesoc-RENAL_AND_URINARY_DISORDERS ;
        crnd-dimension:factor       code:factor-usubjid ;
        crnd-dimension:procedure    code:procedure-countdistinct ;
        crnd-dimension:saffl        code:saffl-Y ;
        crnd-dimension:trta         code:trta-Xanomeline_Low_Dose ;
        crnd-dimension:trtemfl      code:trtemfl-Y ;
        crnd-measure:measure        "1"^^xsd:double .

code:aedecod-COUGH  a                 code:Aedecod , skos:Concept ;
        rdfs:comment                  "Coded values from data source. No reconciliation against another source"@en ;
        rrdfqbcrnd0:R-selectionoperator
                "=="^^xsd:string ;
        rrdfqbcrnd0:R-selectionvalue  "COUGH"^^xsd:string ;
        skos:inScheme                 code:aedecod ;
        skos:prefLabel                "COUGH"^^xsd:string ;
        skos:topConceptOf             code:aedecod .

ds:obs595  a                        qb:Observation ;
        rdfs:comment                "Statistic for number of records/Statistics for factor with the dimensions XX"@en ;
        rdfs:label                  "595"^^xsd:string ;
        qb:dataSet                  ds:dataset-TAB5X01 ;
        crnd-attribute:denominator  "_ALL_" ;
        crnd-attribute:unit         "NA"^^xsd:string ;
        crnd-dimension:aedecod      code:aedecod-NASAL_CONGESTION ;
        crnd-dimension:aesoc        code:aesoc-RESPIRATORY__THORACIC_AND_MEDIAS ;
        crnd-dimension:factor       code:factor-usubjid ;
        crnd-dimension:procedure    code:procedure-countdistinct ;
        crnd-dimension:saffl        code:saffl-Y ;
        crnd-dimension:trta         code:trta-Xanomeline_High_Dose ;
        crnd-dimension:trtemfl      code:trtemfl-Y ;
        crnd-measure:measure        "3"^^xsd:double .

ds:obs342  a                        qb:Observation ;
        rdfs:comment                "Statistic for number of records/Statistics for factor with the dimensions XX"@en ;
        rdfs:label                  "342"^^xsd:string ;
        qb:dataSet                  ds:dataset-TAB5X01 ;
        crnd-attribute:denominator  "_ALL_" ;
        crnd-attribute:unit         "NA"^^xsd:string ;
        crnd-dimension:aedecod      code:aedecod-BIOPSY_PROSTATE ;
        crnd-dimension:aesoc        code:aesoc-INVESTIGATIONS ;
        crnd-dimension:factor       code:factor-quantify ;
        crnd-dimension:procedure    code:procedure-count ;
        crnd-dimension:saffl        code:saffl-Y ;
        crnd-dimension:trta         code:trta-Xanomeline_High_Dose ;
        crnd-dimension:trtemfl      code:trtemfl-Y ;
        crnd-measure:measure        "1"^^xsd:double .

code:aedecod-ALCOHOL_USE
        a                             code:Aedecod , skos:Concept ;
        rdfs:comment                  "Coded values from data source. No reconciliation against another source"@en ;
        rrdfqbcrnd0:R-selectionoperator
                "=="^^xsd:string ;
        rrdfqbcrnd0:R-selectionvalue  "ALCOHOL USE"^^xsd:string ;
        skos:inScheme                 code:aedecod ;
        skos:prefLabel                "ALCOHOL USE"^^xsd:string ;
        skos:topConceptOf             code:aedecod .

code:aesoc-MUSCULOSKELETAL_AND_CONNECTIVE_T
        a                             code:Aesoc , skos:Concept ;
        rdfs:comment                  "Coded values from data source. No reconciliation against another source"@en ;
        rrdfqbcrnd0:R-selectionoperator
                "=="^^xsd:string ;
        rrdfqbcrnd0:R-selectionvalue  "MUSCULOSKELETAL AND CONNECTIVE T"^^xsd:string ;
        skos:inScheme                 code:aesoc ;
        skos:prefLabel                "MUSCULOSKELETAL AND CONNECTIVE T"^^xsd:string ;
        skos:topConceptOf             code:aesoc .

ds:obs517  a                        qb:Observation ;
        rdfs:comment                "Statistic for number of records/Statistics for factor with the dimensions XX"@en ;
        rdfs:label                  "517"^^xsd:string ;
        qb:dataSet                  ds:dataset-TAB5X01 ;
        crnd-attribute:denominator  "_ALL_" ;
        crnd-attribute:unit         "NA"^^xsd:string ;
        crnd-dimension:aedecod      code:aedecod-DELUSION ;
        crnd-dimension:aesoc        code:aesoc-PSYCHIATRIC_DISORDERS ;
        crnd-dimension:factor       code:factor-usubjid ;
        crnd-dimension:procedure    code:procedure-countdistinct ;
        crnd-dimension:saffl        code:saffl-Y ;
        crnd-dimension:trta         code:trta-Xanomeline_High_Dose ;
        crnd-dimension:trtemfl      code:trtemfl-Y ;
        crnd-measure:measure        "1"^^xsd:double .

ds:obs097  a                        qb:Observation ;
        rdfs:comment                "Statistic for number of records/Statistics for factor with the dimensions XX"@en ;
        rdfs:label                  "97"^^xsd:string ;
        qb:dataSet                  ds:dataset-TAB5X01 ;
        crnd-attribute:denominator  "_ALL_" ;
        crnd-attribute:unit         "NA"^^xsd:string ;
        crnd-dimension:aedecod      code:aedecod-ABDOMINAL_PAIN ;
        crnd-dimension:aesoc        code:aesoc-GASTROINTESTINAL_DISORDERS ;
        crnd-dimension:factor       code:factor-usubjid ;
        crnd-dimension:procedure    code:procedure-countdistinct ;
        crnd-dimension:saffl        code:saffl-Y ;
        crnd-dimension:trta         code:trta-Xanomeline_Low_Dose ;
        crnd-dimension:trtemfl      code:trtemfl-Y ;
        crnd-measure:measure        "3"^^xsd:double .

code:aedecod-HYPERTENSION
        a                             code:Aedecod , skos:Concept ;
        rdfs:comment                  "Coded values from data source. No reconciliation against another source"@en ;
        rrdfqbcrnd0:R-selectionoperator
                "=="^^xsd:string ;
        rrdfqbcrnd0:R-selectionvalue  "HYPERTENSION"^^xsd:string ;
        skos:inScheme                 code:aedecod ;
        skos:prefLabel                "HYPERTENSION"^^xsd:string ;
        skos:topConceptOf             code:aedecod .

crnd-dimension:trtemfl
        a            rdf:Property , qb:CodedProperty , qb:DimensionProperty ;
        rdfs:label   "Treatment Emergent Analysis Flag" ;
        rdfs:range   code:Trtemfl ;
        qb:codeList  code:trtemfl .

ds:obs563  a                        qb:Observation ;
        rdfs:comment                "Statistic for number of records/Statistics for factor with the dimensions XX"@en ;
        rdfs:label                  "563"^^xsd:string ;
        qb:dataSet                  ds:dataset-TAB5X01 ;
        crnd-attribute:denominator  "_ALL_" ;
        crnd-attribute:unit         "NA"^^xsd:string ;
        crnd-dimension:aedecod      code:aedecod-BENIGN_PROSTATIC_HYPERPLASIA ;
        crnd-dimension:aesoc        code:aesoc-REPRODUCTIVE_SYSTEM_AND_BREAST_D ;
        crnd-dimension:factor       code:factor-usubjid ;
        crnd-dimension:procedure    code:procedure-countdistinct ;
        crnd-dimension:saffl        code:saffl-Y ;
        crnd-dimension:trta         code:trta-Placebo ;
        crnd-dimension:trtemfl      code:trtemfl-Y ;
        crnd-measure:measure        "1"^^xsd:double .

ds:obs019  a                        qb:Observation ;
        rdfs:comment                "Statistic for number of records/Statistics for factor with the dimensions XX"@en ;
        rdfs:label                  "19"^^xsd:string ;
        qb:dataSet                  ds:dataset-TAB5X01 ;
        crnd-attribute:denominator  "_ALL_" ;
        crnd-attribute:unit         "NA"^^xsd:string ;
        crnd-dimension:aedecod      code:aedecod-BRADYCARDIA ;
        crnd-dimension:aesoc        code:aesoc-CARDIAC_DISORDERS ;
        crnd-dimension:factor       code:factor-usubjid ;
        crnd-dimension:procedure    code:procedure-countdistinct ;
        crnd-dimension:saffl        code:saffl-Y ;
        crnd-dimension:trta         code:trta-Placebo ;
        crnd-dimension:trtemfl      code:trtemfl-Y ;
        crnd-measure:measure        "1"^^xsd:double .

ds:obs310  a                        qb:Observation ;
        rdfs:comment                "Statistic for number of records/Statistics for factor with the dimensions XX"@en ;
        rdfs:label                  "310"^^xsd:string ;
        qb:dataSet                  ds:dataset-TAB5X01 ;
        crnd-attribute:denominator  "_ALL_" ;
        crnd-attribute:unit         "NA"^^xsd:string ;
        crnd-dimension:aedecod      code:aedecod-CONTUSION ;
        crnd-dimension:aesoc        code:aesoc-INJURY__POISONING_AND_PROCEDURAL ;
        crnd-dimension:factor       code:factor-quantify ;
        crnd-dimension:procedure    code:procedure-count ;
        crnd-dimension:saffl        code:saffl-Y ;
        crnd-dimension:trta         code:trta-Xanomeline_High_Dose ;
        crnd-dimension:trtemfl      code:trtemfl-Y ;
        crnd-measure:measure        "3"^^xsd:double .

ds:obs738  a                        qb:Observation ;
        rdfs:comment                "Statistic for number of records/Statistics for factor with the dimensions XX"@en ;
        rdfs:label                  "738"^^xsd:string ;
        qb:dataSet                  ds:dataset-TAB5X01 ;
        crnd-attribute:denominator  "_ALL_" ;
        crnd-attribute:unit         "NA"^^xsd:string ;
        crnd-dimension:aedecod      code:aedecod-_ALL_ ;
        crnd-dimension:aesoc        code:aesoc-GASTROINTESTINAL_DISORDERS ;
        crnd-dimension:factor       code:factor-quantify ;
        crnd-dimension:procedure    code:procedure-count ;
        crnd-dimension:saffl        code:saffl-Y ;
        crnd-dimension:trta         code:trta-Placebo ;
        crnd-dimension:trtemfl      code:trtemfl-Y ;
        crnd-measure:measure        "26"^^xsd:double .

code:aedecod-EPISTAXIS
        a                             code:Aedecod , skos:Concept ;
        rdfs:comment                  "Coded values from data source. No reconciliation against another source"@en ;
        rrdfqbcrnd0:R-selectionoperator
                "=="^^xsd:string ;
        rrdfqbcrnd0:R-selectionvalue  "EPISTAXIS"^^xsd:string ;
        skos:inScheme                 code:aedecod ;
        skos:prefLabel                "EPISTAXIS"^^xsd:string ;
        skos:topConceptOf             code:aedecod .

code:aedecod-BALANCE_DISORDER
        a                             code:Aedecod , skos:Concept ;
        rdfs:comment                  "Coded values from data source. No reconciliation against another source"@en ;
        rrdfqbcrnd0:R-selectionoperator
                "=="^^xsd:string ;
        rrdfqbcrnd0:R-selectionvalue  "BALANCE DISORDER"^^xsd:string ;
        skos:inScheme                 code:aedecod ;
        skos:prefLabel                "BALANCE DISORDER"^^xsd:string ;
        skos:topConceptOf             code:aedecod .

code:aedecod-EMPHYSEMA
        a                             code:Aedecod , skos:Concept ;
        rdfs:comment                  "Coded values from data source. No reconciliation against another source"@en ;
        rrdfqbcrnd0:R-selectionoperator
                "=="^^xsd:string ;
        rrdfqbcrnd0:R-selectionvalue  "EMPHYSEMA"^^xsd:string ;
        skos:inScheme                 code:aedecod ;
        skos:prefLabel                "EMPHYSEMA"^^xsd:string ;
        skos:topConceptOf             code:aedecod .

ds:obs065  a                        qb:Observation ;
        rdfs:comment                "Statistic for number of records/Statistics for factor with the dimensions XX"@en ;
        rdfs:label                  "65"^^xsd:string ;
        qb:dataSet                  ds:dataset-TAB5X01 ;
        crnd-attribute:denominator  "_ALL_" ;
        crnd-attribute:unit         "NA"^^xsd:string ;
        crnd-dimension:aedecod      code:aedecod-VENTRICULAR_SEPTAL_DEFECT ;
        crnd-dimension:aesoc        code:aesoc-CONGENITAL__FAMILIAL_AND_GENETIC ;
        crnd-dimension:factor       code:factor-usubjid ;
        crnd-dimension:procedure    code:procedure-countdistinct ;
        crnd-dimension:saffl        code:saffl-Y ;
        crnd-dimension:trta         code:trta-Xanomeline_High_Dose ;
        crnd-dimension:trtemfl      code:trtemfl-Y ;
        crnd-measure:measure        "2"^^xsd:double .

ds:obs784  a                        qb:Observation ;
        rdfs:comment                "Statistic for number of records/Statistics for factor with the dimensions XX"@en ;
        rdfs:label                  "784"^^xsd:string ;
        qb:dataSet                  ds:dataset-TAB5X01 ;
        crnd-attribute:denominator  "_ALL_" ;
        crnd-attribute:unit         "NA"^^xsd:string ;
        crnd-dimension:aedecod      code:aedecod-_ALL_ ;
        crnd-dimension:aesoc        code:aesoc-NEOPLASMS_BENIGN__MALIGNANT_AND ;
        crnd-dimension:factor       code:factor-quantify ;
        crnd-dimension:procedure    code:procedure-count ;
        crnd-dimension:saffl        code:saffl-Y ;
        crnd-dimension:trta         code:trta-Xanomeline_High_Dose ;
        crnd-dimension:trtemfl      code:trtemfl-Y ;
        crnd-measure:measure        "1"^^xsd:double .

ds:obs531  a                        qb:Observation ;
        rdfs:comment                "Statistic for number of records/Statistics for factor with the dimensions XX"@en ;
        rdfs:label                  "531"^^xsd:string ;
        qb:dataSet                  ds:dataset-TAB5X01 ;
        crnd-attribute:denominator  "_ALL_" ;
        crnd-attribute:unit         "NA"^^xsd:string ;
        crnd-dimension:aedecod      code:aedecod-IRRITABILITY ;
        crnd-dimension:aesoc        code:aesoc-PSYCHIATRIC_DISORDERS ;
        crnd-dimension:factor       code:factor-usubjid ;
        crnd-dimension:procedure    code:procedure-countdistinct ;
        crnd-dimension:saffl        code:saffl-Y ;
        crnd-dimension:trta         code:trta-Placebo ;
        crnd-dimension:trtemfl      code:trtemfl-Y ;
        crnd-measure:measure        "1"^^xsd:double .

ds:obs706  a                        qb:Observation ;
        rdfs:comment                "Statistic for number of records/Statistics for factor with the dimensions XX"@en ;
        rdfs:label                  "706"^^xsd:string ;
        qb:dataSet                  ds:dataset-TAB5X01 ;
        crnd-attribute:denominator  "_ALL_" ;
        crnd-attribute:unit         "NA"^^xsd:string ;
        crnd-dimension:aedecod      code:aedecod-ORTHOSTATIC_HYPOTENSION ;
        crnd-dimension:aesoc        code:aesoc-VASCULAR_DISORDERS ;
        crnd-dimension:factor       code:factor-quantify ;
        crnd-dimension:procedure    code:procedure-count ;
        crnd-dimension:saffl        code:saffl-Y ;
        crnd-dimension:trta         code:trta-Placebo ;
        crnd-dimension:trtemfl      code:trtemfl-Y ;
        crnd-measure:measure        "2"^^xsd:double .

ds:obs286  a                        qb:Observation ;
        rdfs:comment                "Statistic for number of records/Statistics for factor with the dimensions XX"@en ;
        rdfs:label                  "286"^^xsd:string ;
        qb:dataSet                  ds:dataset-TAB5X01 ;
        crnd-attribute:denominator  "_ALL_" ;
        crnd-attribute:unit         "NA"^^xsd:string ;
        crnd-dimension:aedecod      code:aedecod-NASOPHARYNGITIS ;
        crnd-dimension:aesoc        code:aesoc-INFECTIONS_AND_INFESTATIONS ;
        crnd-dimension:factor       code:factor-quantify ;
        crnd-dimension:procedure    code:procedure-count ;
        crnd-dimension:saffl        code:saffl-Y ;
        crnd-dimension:trta         code:trta-Xanomeline_High_Dose ;
        crnd-dimension:trtemfl      code:trtemfl-Y ;
        crnd-measure:measure        "8"^^xsd:double .

code:factor-_ALL_  a       code:Factor , skos:Concept ;
        rdfs:comment       "NON-CDISC: Represents all codelist categories."@en ;
        skos:inScheme      code:factor ;
        skos:prefLabel     "_ALL_"^^xsd:string ;
        skos:topConceptOf  code:factor .

ds:obs033  a                        qb:Observation ;
        rdfs:comment                "Statistic for number of records/Statistics for factor with the dimensions XX"@en ;
        rdfs:label                  "33"^^xsd:string ;
        qb:dataSet                  ds:dataset-TAB5X01 ;
        crnd-attribute:denominator  "_ALL_" ;
        crnd-attribute:unit         "NA"^^xsd:string ;
        crnd-dimension:aedecod      code:aedecod-MYOCARDIAL_INFARCTION ;
        crnd-dimension:aesoc        code:aesoc-CARDIAC_DISORDERS ;
        crnd-dimension:factor       code:factor-usubjid ;
        crnd-dimension:procedure    code:procedure-countdistinct ;
        crnd-dimension:saffl        code:saffl-Y ;
        crnd-dimension:trta         code:trta-Xanomeline_High_Dose ;
        crnd-dimension:trtemfl      code:trtemfl-Y ;
        crnd-measure:measure        "4"^^xsd:double .

ds:obs752  a                        qb:Observation ;
        rdfs:comment                "Statistic for number of records/Statistics for factor with the dimensions XX"@en ;
        rdfs:label                  "752"^^xsd:string ;
        qb:dataSet                  ds:dataset-TAB5X01 ;
        crnd-attribute:denominator  "_ALL_" ;
        crnd-attribute:unit         "NA"^^xsd:string ;
        crnd-dimension:aedecod      code:aedecod-_ALL_ ;
        crnd-dimension:aesoc        code:aesoc-IMMUNE_SYSTEM_DISORDERS ;
        crnd-dimension:factor       code:factor-quantify ;
        crnd-dimension:procedure    code:procedure-count ;
        crnd-dimension:saffl        code:saffl-Y ;
        crnd-dimension:trta         code:trta-Xanomeline_Low_Dose ;
        crnd-dimension:trtemfl      code:trtemfl-Y ;
        crnd-measure:measure        "2"^^xsd:double .

ds:obs208  a                        qb:Observation ;
        rdfs:comment                "Statistic for number of records/Statistics for factor with the dimensions XX"@en ;
        rdfs:label                  "208"^^xsd:string ;
        qb:dataSet                  ds:dataset-TAB5X01 ;
        crnd-attribute:denominator  "_ALL_" ;
        crnd-attribute:unit         "NA"^^xsd:string ;
        crnd-dimension:aedecod      code:aedecod-CHILLS ;
        crnd-dimension:aesoc        code:aesoc-GENERAL_DISORDERS_AND_ADMINISTRA ;
        crnd-dimension:factor       code:factor-quantify ;
        crnd-dimension:procedure    code:procedure-count ;
        crnd-dimension:saffl        code:saffl-Y ;
        crnd-dimension:trta         code:trta-Placebo ;
        crnd-dimension:trtemfl      code:trtemfl-Y ;
        crnd-measure:measure        "3"^^xsd:double .

code:aedecod-NASOPHARYNGITIS
        a                             code:Aedecod , skos:Concept ;
        rdfs:comment                  "Coded values from data source. No reconciliation against another source"@en ;
        rrdfqbcrnd0:R-selectionoperator
                "=="^^xsd:string ;
        rrdfqbcrnd0:R-selectionvalue  "NASOPHARYNGITIS"^^xsd:string ;
        skos:inScheme                 code:aedecod ;
        skos:prefLabel                "NASOPHARYNGITIS"^^xsd:string ;
        skos:topConceptOf             code:aedecod .

code:aedecod-FATIGUE  a               code:Aedecod , skos:Concept ;
        rdfs:comment                  "Coded values from data source. No reconciliation against another source"@en ;
        rrdfqbcrnd0:R-selectionoperator
                "=="^^xsd:string ;
        rrdfqbcrnd0:R-selectionvalue  "FATIGUE"^^xsd:string ;
        skos:inScheme                 code:aedecod ;
        skos:prefLabel                "FATIGUE"^^xsd:string ;
        skos:topConceptOf             code:aedecod .

ds:obs254  a                        qb:Observation ;
        rdfs:comment                "Statistic for number of records/Statistics for factor with the dimensions XX"@en ;
        rdfs:label                  "254"^^xsd:string ;
        qb:dataSet                  ds:dataset-TAB5X01 ;
        crnd-attribute:denominator  "_ALL_" ;
        crnd-attribute:unit         "NA"^^xsd:string ;
        crnd-dimension:aedecod      code:aedecod-HYPERBILIRUBINAEMIA ;
        crnd-dimension:aesoc        code:aesoc-HEPATOBILIARY_DISORDERS ;
        crnd-dimension:factor       code:factor-quantify ;
        crnd-dimension:procedure    code:procedure-count ;
        crnd-dimension:saffl        code:saffl-Y ;
        crnd-dimension:trta         code:trta-Placebo ;
        crnd-dimension:trtemfl      code:trtemfl-Y ;
        crnd-measure:measure        "1"^^xsd:double .

ds:obs001  a                        qb:Observation ;
        rdfs:comment                "Statistic for number of records/Statistics for factor with the dimensions XX"@en ;
        rdfs:label                  "1"^^xsd:string ;
        qb:dataSet                  ds:dataset-TAB5X01 ;
        crnd-attribute:denominator  "_ALL_" ;
        crnd-attribute:unit         "NA"^^xsd:string ;
        crnd-dimension:aedecod      code:aedecod-ATRIAL_FIBRILLATION ;
        crnd-dimension:aesoc        code:aesoc-CARDIAC_DISORDERS ;
        crnd-dimension:factor       code:factor-usubjid ;
        crnd-dimension:procedure    code:procedure-countdistinct ;
        crnd-dimension:saffl        code:saffl-Y ;
        crnd-dimension:trta         code:trta-Placebo ;
        crnd-dimension:trtemfl      code:trtemfl-Y ;
        crnd-measure:measure        "1"^^xsd:double .

ds:obs429  a                        qb:Observation ;
        rdfs:comment                "Statistic for number of records/Statistics for factor with the dimensions XX"@en ;
        rdfs:label                  "429"^^xsd:string ;
        qb:dataSet                  ds:dataset-TAB5X01 ;
        crnd-attribute:denominator  "_ALL_" ;
        crnd-attribute:unit         "NA"^^xsd:string ;
        crnd-dimension:aedecod      code:aedecod-COLON_CANCER ;
        crnd-dimension:aesoc        code:aesoc-NEOPLASMS_BENIGN__MALIGNANT_AND ;
        crnd-dimension:factor       code:factor-usubjid ;
        crnd-dimension:procedure    code:procedure-countdistinct ;
        crnd-dimension:saffl        code:saffl-Y ;
        crnd-dimension:trta         code:trta-Xanomeline_Low_Dose ;
        crnd-dimension:trtemfl      code:trtemfl-Y ;
        crnd-measure:measure        "1"^^xsd:double .

ds:obs720  a                        qb:Observation ;
        rdfs:comment                "Statistic for number of records/Statistics for factor with the dimensions XX"@en ;
        rdfs:label                  "720"^^xsd:string ;
        qb:dataSet                  ds:dataset-TAB5X01 ;
        crnd-attribute:denominator  "_ALL_" ;
        crnd-attribute:unit         "NA"^^xsd:string ;
        crnd-dimension:aedecod      code:aedecod-_ALL_ ;
        crnd-dimension:aesoc        code:aesoc-CARDIAC_DISORDERS ;
        crnd-dimension:factor       code:factor-quantify ;
        crnd-dimension:procedure    code:procedure-count ;
        crnd-dimension:saffl        code:saffl-Y ;
        crnd-dimension:trta         code:trta-Xanomeline_Low_Dose ;
        crnd-dimension:trtemfl      code:trtemfl-Y ;
        crnd-measure:measure        "30"^^xsd:double .

ds:obs475  a                        qb:Observation ;
        rdfs:comment                "Statistic for number of records/Statistics for factor with the dimensions XX"@en ;
        rdfs:label                  "475"^^xsd:string ;
        qb:dataSet                  ds:dataset-TAB5X01 ;
        crnd-attribute:denominator  "_ALL_" ;
        crnd-attribute:unit         "NA"^^xsd:string ;
        crnd-dimension:aedecod      code:aedecod-PARTIAL_SEIZURES_WITH_SECONDARY ;
        crnd-dimension:aesoc        code:aesoc-NERVOUS_SYSTEM_DISORDERS ;
        crnd-dimension:factor       code:factor-usubjid ;
        crnd-dimension:procedure    code:procedure-countdistinct ;
        crnd-dimension:saffl        code:saffl-Y ;
        crnd-dimension:trta         code:trta-Xanomeline_High_Dose ;
        crnd-dimension:trtemfl      code:trtemfl-Y ;
        crnd-measure:measure        "1"^^xsd:double .

ds:obs222  a                        qb:Observation ;
        rdfs:comment                "Statistic for number of records/Statistics for factor with the dimensions XX"@en ;
        rdfs:label                  "222"^^xsd:string ;
        qb:dataSet                  ds:dataset-TAB5X01 ;
        crnd-attribute:denominator  "_ALL_" ;
        crnd-attribute:unit         "NA"^^xsd:string ;
        crnd-dimension:aedecod      code:aedecod-FEELING_COLD ;
        crnd-dimension:aesoc        code:aesoc-GENERAL_DISORDERS_AND_ADMINISTRA ;
        crnd-dimension:factor       code:factor-quantify ;
        crnd-dimension:procedure    code:procedure-count ;
        crnd-dimension:saffl        code:saffl-Y ;
        crnd-dimension:trta         code:trta-Xanomeline_High_Dose ;
        crnd-dimension:trtemfl      code:trtemfl-Y ;
        crnd-measure:measure        "1"^^xsd:double .

ds:obs696  a                        qb:Observation ;
        rdfs:comment                "Statistic for number of records/Statistics for factor with the dimensions XX"@en ;
        rdfs:label                  "696"^^xsd:string ;
        qb:dataSet                  ds:dataset-TAB5X01 ;
        crnd-attribute:denominator  "_ALL_" ;
        crnd-attribute:unit         "NA"^^xsd:string ;
        crnd-dimension:aedecod      code:aedecod-HOT_FLUSH ;
        crnd-dimension:aesoc        code:aesoc-VASCULAR_DISORDERS ;
        crnd-dimension:factor       code:factor-quantify ;
        crnd-dimension:procedure    code:procedure-count ;
        crnd-dimension:saffl        code:saffl-Y ;
        crnd-dimension:trta         code:trta-Xanomeline_Low_Dose ;
        crnd-dimension:trtemfl      code:trtemfl-Y ;
        crnd-measure:measure        "1"^^xsd:double .

code:aedecod-VOMITING
        a                             code:Aedecod , skos:Concept ;
        rdfs:comment                  "Coded values from data source. No reconciliation against another source"@en ;
        rrdfqbcrnd0:R-selectionoperator
                "=="^^xsd:string ;
        rrdfqbcrnd0:R-selectionvalue  "VOMITING"^^xsd:string ;
        skos:inScheme                 code:aedecod ;
        skos:prefLabel                "VOMITING"^^xsd:string ;
        skos:topConceptOf             code:aedecod .

rrdfqbcrnd0:ADQSADAS_QUANTIFY
        rrdfqbcrnd0:D2RQ-DataSetName  "ADQSADAS"^^xsd:string ;
        rrdfqbcrnd0:D2RQ-PropertyBridge
                <http://www.example.org/datasets/vocab/ADQSADAS_QUANTIFY> .

ds:obs443  a                        qb:Observation ;
        rdfs:comment                "Statistic for number of records/Statistics for factor with the dimensions XX"@en ;
        rdfs:label                  "443"^^xsd:string ;
        qb:dataSet                  ds:dataset-TAB5X01 ;
        crnd-attribute:denominator  "_ALL_" ;
        crnd-attribute:unit         "NA"^^xsd:string ;
        crnd-dimension:aedecod      code:aedecod-COMPLEX_PARTIAL_SEIZURES ;
        crnd-dimension:aesoc        code:aesoc-NERVOUS_SYSTEM_DISORDERS ;
        crnd-dimension:factor       code:factor-usubjid ;
        crnd-dimension:procedure    code:procedure-countdistinct ;
        crnd-dimension:saffl        code:saffl-Y ;
        crnd-dimension:trta         code:trta-Xanomeline_Low_Dose ;
        crnd-dimension:trtemfl      code:trtemfl-Y ;
        crnd-measure:measure        "1"^^xsd:double .

code:trta-_ALL_  a         code:Trta , skos:Concept ;
        rdfs:comment       "NON-CDISC: Represents all codelist categories."@en ;
        skos:inScheme      code:trta ;
        skos:prefLabel     "_ALL_"^^xsd:string ;
        skos:topConceptOf  code:trta .

ds:obs618  a                        qb:Observation ;
        rdfs:comment                "Statistic for number of records/Statistics for factor with the dimensions XX"@en ;
        rdfs:label                  "618"^^xsd:string ;
        qb:dataSet                  ds:dataset-TAB5X01 ;
        crnd-attribute:denominator  "_ALL_" ;
        crnd-attribute:unit         "NA"^^xsd:string ;
        crnd-dimension:aedecod      code:aedecod-ACTINIC_KERATOSIS ;
        crnd-dimension:aesoc        code:aesoc-SKIN_AND_SUBCUTANEOUS_TISSUE_DIS ;
        crnd-dimension:factor       code:factor-quantify ;
        crnd-dimension:procedure    code:procedure-count ;
        crnd-dimension:saffl        code:saffl-Y ;
        crnd-dimension:trta         code:trta-Xanomeline_High_Dose ;
        crnd-dimension:trtemfl      code:trtemfl-Y ;
        crnd-measure:measure        "1"^^xsd:double .

code:aesoc-CONGENITAL__FAMILIAL_AND_GENETIC
        a                             code:Aesoc , skos:Concept ;
        rdfs:comment                  "Coded values from data source. No reconciliation against another source"@en ;
        rrdfqbcrnd0:R-selectionoperator
                "=="^^xsd:string ;
        rrdfqbcrnd0:R-selectionvalue  "CONGENITAL, FAMILIAL AND GENETIC"^^xsd:string ;
        skos:inScheme                 code:aesoc ;
        skos:prefLabel                "CONGENITAL, FAMILIAL AND GENETIC"^^xsd:string ;
        skos:topConceptOf             code:aesoc .

code:aedecod-HYPERBILIRUBINAEMIA
        a                             code:Aedecod , skos:Concept ;
        rdfs:comment                  "Coded values from data source. No reconciliation against another source"@en ;
        rrdfqbcrnd0:R-selectionoperator
                "=="^^xsd:string ;
        rrdfqbcrnd0:R-selectionvalue  "HYPERBILIRUBINAEMIA"^^xsd:string ;
        skos:inScheme                 code:aedecod ;
        skos:prefLabel                "HYPERBILIRUBINAEMIA"^^xsd:string ;
        skos:topConceptOf             code:aedecod .

code:aedecod-MUSCLE_SPASMS
        a                             code:Aedecod , skos:Concept ;
        rdfs:comment                  "Coded values from data source. No reconciliation against another source"@en ;
        rrdfqbcrnd0:R-selectionoperator
                "=="^^xsd:string ;
        rrdfqbcrnd0:R-selectionvalue  "MUSCLE SPASMS"^^xsd:string ;
        skos:inScheme                 code:aedecod ;
        skos:prefLabel                "MUSCLE SPASMS"^^xsd:string ;
        skos:topConceptOf             code:aedecod .

ds:obs198  a                        qb:Observation ;
        rdfs:comment                "Statistic for number of records/Statistics for factor with the dimensions XX"@en ;
        rdfs:label                  "198"^^xsd:string ;
        qb:dataSet                  ds:dataset-TAB5X01 ;
        crnd-attribute:denominator  "_ALL_" ;
        crnd-attribute:unit         "NA"^^xsd:string ;
        crnd-dimension:aedecod      code:aedecod-APPLICATION_SITE_WARMTH ;
        crnd-dimension:aesoc        code:aesoc-GENERAL_DISORDERS_AND_ADMINISTRA ;
        crnd-dimension:factor       code:factor-quantify ;
        crnd-dimension:procedure    code:procedure-count ;
        crnd-dimension:saffl        code:saffl-Y ;
        crnd-dimension:trta         code:trta-Xanomeline_Low_Dose ;
        crnd-dimension:trtemfl      code:trtemfl-Y ;
        crnd-measure:measure        "2"^^xsd:double .

ds:obs664  a                        qb:Observation ;
        rdfs:comment                "Statistic for number of records/Statistics for factor with the dimensions XX"@en ;
        rdfs:label                  "664"^^xsd:string ;
        qb:dataSet                  ds:dataset-TAB5X01 ;
        crnd-attribute:denominator  "_ALL_" ;
        crnd-attribute:unit         "NA"^^xsd:string ;
        crnd-dimension:aedecod      code:aedecod-RASH_PRURITIC ;
        crnd-dimension:aesoc        code:aesoc-SKIN_AND_SUBCUTANEOUS_TISSUE_DIS ;
        crnd-dimension:factor       code:factor-quantify ;
        crnd-dimension:procedure    code:procedure-count ;
        crnd-dimension:saffl        code:saffl-Y ;
        crnd-dimension:trta         code:trta-Xanomeline_High_Dose ;
        crnd-dimension:trtemfl      code:trtemfl-Y ;
        crnd-measure:measure        "3"^^xsd:double .

code:aedecod-DIZZINESS
        a                             code:Aedecod , skos:Concept ;
        rdfs:comment                  "Coded values from data source. No reconciliation against another source"@en ;
        rrdfqbcrnd0:R-selectionoperator
                "=="^^xsd:string ;
        rrdfqbcrnd0:R-selectionvalue  "DIZZINESS"^^xsd:string ;
        skos:inScheme                 code:aedecod ;
        skos:prefLabel                "DIZZINESS"^^xsd:string ;
        skos:topConceptOf             code:aedecod .

ds:obs411  a                        qb:Observation ;
        rdfs:comment                "Statistic for number of records/Statistics for factor with the dimensions XX"@en ;
        rdfs:label                  "411"^^xsd:string ;
        qb:dataSet                  ds:dataset-TAB5X01 ;
        crnd-attribute:denominator  "_ALL_" ;
        crnd-attribute:unit         "NA"^^xsd:string ;
        crnd-dimension:aedecod      code:aedecod-BACK_PAIN ;
        crnd-dimension:aesoc        code:aesoc-MUSCULOSKELETAL_AND_CONNECTIVE_T ;
        crnd-dimension:factor       code:factor-usubjid ;
        crnd-dimension:procedure    code:procedure-countdistinct ;
        crnd-dimension:saffl        code:saffl-Y ;
        crnd-dimension:trta         code:trta-Xanomeline_Low_Dose ;
        crnd-dimension:trtemfl      code:trtemfl-Y ;
        crnd-measure:measure        "1"^^xsd:double .

code:aedecod-PHARYNGEAL_ERYTHEMA
        a                             code:Aedecod , skos:Concept ;
        rdfs:comment                  "Coded values from data source. No reconciliation against another source"@en ;
        rrdfqbcrnd0:R-selectionoperator
                "=="^^xsd:string ;
        rrdfqbcrnd0:R-selectionvalue  "PHARYNGEAL ERYTHEMA"^^xsd:string ;
        skos:inScheme                 code:aedecod ;
        skos:prefLabel                "PHARYNGEAL ERYTHEMA"^^xsd:string ;
        skos:topConceptOf             code:aedecod .

ds:obs166  a                        qb:Observation ;
        rdfs:comment                "Statistic for number of records/Statistics for factor with the dimensions XX"@en ;
        rdfs:label                  "166"^^xsd:string ;
        qb:dataSet                  ds:dataset-TAB5X01 ;
        crnd-attribute:denominator  "_ALL_" ;
        crnd-attribute:unit         "NA"^^xsd:string ;
        crnd-dimension:aedecod      code:aedecod-APPLICATION_SITE_IRRITATION ;
        crnd-dimension:aesoc        code:aesoc-GENERAL_DISORDERS_AND_ADMINISTRA ;
        crnd-dimension:factor       code:factor-quantify ;
        crnd-dimension:procedure    code:procedure-count ;
        crnd-dimension:saffl        code:saffl-Y ;
        crnd-dimension:trta         code:trta-Xanomeline_High_Dose ;
        crnd-dimension:trtemfl      code:trtemfl-Y ;
        crnd-measure:measure        "16"^^xsd:double .

code:aedecod-HIATUS_HERNIA
        a                             code:Aedecod , skos:Concept ;
        rdfs:comment                  "Coded values from data source. No reconciliation against another source"@en ;
        rrdfqbcrnd0:R-selectionoperator
                "=="^^xsd:string ;
        rrdfqbcrnd0:R-selectionvalue  "HIATUS HERNIA"^^xsd:string ;
        skos:inScheme                 code:aedecod ;
        skos:prefLabel                "HIATUS HERNIA"^^xsd:string ;
        skos:topConceptOf             code:aedecod .

ds:obs632  a                        qb:Observation ;
        rdfs:comment                "Statistic for number of records/Statistics for factor with the dimensions XX"@en ;
        rdfs:label                  "632"^^xsd:string ;
        qb:dataSet                  ds:dataset-TAB5X01 ;
        crnd-attribute:denominator  "_ALL_" ;
        crnd-attribute:unit         "NA"^^xsd:string ;
        crnd-dimension:aedecod      code:aedecod-ERYTHEMA ;
        crnd-dimension:aesoc        code:aesoc-SKIN_AND_SUBCUTANEOUS_TISSUE_DIS ;
        crnd-dimension:factor       code:factor-quantify ;
        crnd-dimension:procedure    code:procedure-count ;
        crnd-dimension:saffl        code:saffl-Y ;
        crnd-dimension:trta         code:trta-Placebo ;
        crnd-dimension:trtemfl      code:trtemfl-Y ;
        crnd-measure:measure        "12"^^xsd:double .

ds:obs807  a                        qb:Observation ;
        rdfs:comment                "Statistic for number of records/Statistics for factor with the dimensions XX"@en ;
        rdfs:label                  "807"^^xsd:string ;
        qb:dataSet                  ds:dataset-TAB5X01 ;
        crnd-attribute:denominator  "_ALL_" ;
        crnd-attribute:unit         "NA"^^xsd:string ;
        crnd-dimension:aedecod      code:aedecod-_ALL_ ;
        crnd-dimension:aesoc        code:aesoc-REPRODUCTIVE_SYSTEM_AND_BREAST_D ;
        crnd-dimension:factor       code:factor-usubjid ;
        crnd-dimension:procedure    code:procedure-countdistinct ;
        crnd-dimension:saffl        code:saffl-Y ;
        crnd-dimension:trta         code:trta-Xanomeline_High_Dose ;
        crnd-dimension:trtemfl      code:trtemfl-Y ;
        crnd-measure:measure        "1"^^xsd:double .

ds:obs387  a                        qb:Observation ;
        rdfs:comment                "Statistic for number of records/Statistics for factor with the dimensions XX"@en ;
        rdfs:label                  "387"^^xsd:string ;
        qb:dataSet                  ds:dataset-TAB5X01 ;
        crnd-attribute:denominator  "_ALL_" ;
        crnd-attribute:unit         "NA"^^xsd:string ;
        crnd-dimension:aedecod      code:aedecod-DIABETES_MELLITUS ;
        crnd-dimension:aesoc        code:aesoc-METABOLISM_AND_NUTRITION_DISORDE ;
        crnd-dimension:factor       code:factor-usubjid ;
        crnd-dimension:procedure    code:procedure-countdistinct ;
        crnd-dimension:saffl        code:saffl-Y ;
        crnd-dimension:trta         code:trta-Placebo ;
        crnd-dimension:trtemfl      code:trtemfl-Y ;
        crnd-measure:measure        "1"^^xsd:double .

ds:obs134  a                        qb:Observation ;
        rdfs:comment                "Statistic for number of records/Statistics for factor with the dimensions XX"@en ;
        rdfs:label                  "134"^^xsd:string ;
        qb:dataSet                  ds:dataset-TAB5X01 ;
        crnd-attribute:denominator  "_ALL_" ;
        crnd-attribute:unit         "NA"^^xsd:string ;
        crnd-dimension:aedecod      code:aedecod-STOMACH_DISCOMFORT ;
        crnd-dimension:aesoc        code:aesoc-GASTROINTESTINAL_DISORDERS ;
        crnd-dimension:factor       code:factor-quantify ;
        crnd-dimension:procedure    code:procedure-count ;
        crnd-dimension:saffl        code:saffl-Y ;
        crnd-dimension:trta         code:trta-Xanomeline_High_Dose ;
        crnd-dimension:trtemfl      code:trtemfl-Y ;
        crnd-measure:measure        "1"^^xsd:double .

ds:obs309  a                        qb:Observation ;
        rdfs:comment                "Statistic for number of records/Statistics for factor with the dimensions XX"@en ;
        rdfs:label                  "309"^^xsd:string ;
        qb:dataSet                  ds:dataset-TAB5X01 ;
        crnd-attribute:denominator  "_ALL_" ;
        crnd-attribute:unit         "NA"^^xsd:string ;
        crnd-dimension:aedecod      code:aedecod-CONTUSION ;
        crnd-dimension:aesoc        code:aesoc-INJURY__POISONING_AND_PROCEDURAL ;
        crnd-dimension:factor       code:factor-usubjid ;
        crnd-dimension:procedure    code:procedure-countdistinct ;
        crnd-dimension:saffl        code:saffl-Y ;
        crnd-dimension:trta         code:trta-Xanomeline_High_Dose ;
        crnd-dimension:trtemfl      code:trtemfl-Y ;
        crnd-measure:measure        "2"^^xsd:double .

ds:obs600  a                        qb:Observation ;
        rdfs:comment                "Statistic for number of records/Statistics for factor with the dimensions XX"@en ;
        rdfs:label                  "600"^^xsd:string ;
        qb:dataSet                  ds:dataset-TAB5X01 ;
        crnd-attribute:denominator  "_ALL_" ;
        crnd-attribute:unit         "NA"^^xsd:string ;
        crnd-dimension:aedecod      code:aedecod-PHARYNGEAL_ERYTHEMA ;
        crnd-dimension:aesoc        code:aesoc-RESPIRATORY__THORACIC_AND_MEDIAS ;
        crnd-dimension:factor       code:factor-quantify ;
        crnd-dimension:procedure    code:procedure-count ;
        crnd-dimension:saffl        code:saffl-Y ;
        crnd-dimension:trta         code:trta-Xanomeline_High_Dose ;
        crnd-dimension:trtemfl      code:trtemfl-Y ;
        crnd-measure:measure        "2"^^xsd:double .

ds:obs180  a                        qb:Observation ;
        rdfs:comment                "Statistic for number of records/Statistics for factor with the dimensions XX"@en ;
        rdfs:label                  "180"^^xsd:string ;
        qb:dataSet                  ds:dataset-TAB5X01 ;
        crnd-attribute:denominator  "_ALL_" ;
        crnd-attribute:unit         "NA"^^xsd:string ;
        crnd-dimension:aedecod      code:aedecod-APPLICATION_SITE_REACTION ;
        crnd-dimension:aesoc        code:aesoc-GENERAL_DISORDERS_AND_ADMINISTRA ;
        crnd-dimension:factor       code:factor-quantify ;
        crnd-dimension:procedure    code:procedure-count ;
        crnd-dimension:saffl        code:saffl-Y ;
        crnd-dimension:trta         code:trta-Placebo ;
        crnd-dimension:trtemfl      code:trtemfl-Y ;
        crnd-measure:measure        "2"^^xsd:double .

ds:obs355  a                        qb:Observation ;
        rdfs:comment                "Statistic for number of records/Statistics for factor with the dimensions XX"@en ;
        rdfs:label                  "355"^^xsd:string ;
        qb:dataSet                  ds:dataset-TAB5X01 ;
        crnd-attribute:denominator  "_ALL_" ;
        crnd-attribute:unit         "NA"^^xsd:string ;
        crnd-dimension:aedecod      code:aedecod-BODY_TEMPERATURE_INCREASED ;
        crnd-dimension:aesoc        code:aesoc-INVESTIGATIONS ;
        crnd-dimension:factor       code:factor-usubjid ;
        crnd-dimension:procedure    code:procedure-countdistinct ;
        crnd-dimension:saffl        code:saffl-Y ;
        crnd-dimension:trta         code:trta-Xanomeline_Low_Dose ;
        crnd-dimension:trtemfl      code:trtemfl-Y ;
        crnd-measure:measure        "1"^^xsd:double .

code:aedecod-STUPOR  a                code:Aedecod , skos:Concept ;
        rdfs:comment                  "Coded values from data source. No reconciliation against another source"@en ;
        rrdfqbcrnd0:R-selectionoperator
                "=="^^xsd:string ;
        rrdfqbcrnd0:R-selectionvalue  "STUPOR"^^xsd:string ;
        skos:inScheme                 code:aedecod ;
        skos:prefLabel                "STUPOR"^^xsd:string ;
        skos:topConceptOf             code:aedecod .

ds:obs102  a                        qb:Observation ;
        rdfs:comment                "Statistic for number of records/Statistics for factor with the dimensions XX"@en ;
        rdfs:label                  "102"^^xsd:string ;
        qb:dataSet                  ds:dataset-TAB5X01 ;
        crnd-attribute:denominator  "_ALL_" ;
        crnd-attribute:unit         "NA"^^xsd:string ;
        crnd-dimension:aedecod      code:aedecod-DIARRHOEA ;
        crnd-dimension:aesoc        code:aesoc-GASTROINTESTINAL_DISORDERS ;
        crnd-dimension:factor       code:factor-quantify ;
        crnd-dimension:procedure    code:procedure-count ;
        crnd-dimension:saffl        code:saffl-Y ;
        crnd-dimension:trta         code:trta-Placebo ;
        crnd-dimension:trtemfl      code:trtemfl-Y ;
        crnd-measure:measure        "10"^^xsd:double .

ds:obs821  a                        qb:Observation ;
        rdfs:comment                "Statistic for number of records/Statistics for factor with the dimensions XX"@en ;
        rdfs:label                  "821"^^xsd:string ;
        qb:dataSet                  ds:dataset-TAB5X01 ;
        crnd-attribute:denominator  "_ALL_" ;
        crnd-attribute:unit         "NA"^^xsd:string ;
        crnd-dimension:aedecod      code:aedecod-_ALL_ ;
        crnd-dimension:aesoc        code:aesoc-SOCIAL_CIRCUMSTANCES ;
        crnd-dimension:factor       code:factor-usubjid ;
        crnd-dimension:procedure    code:procedure-countdistinct ;
        crnd-dimension:saffl        code:saffl-Y ;
        crnd-dimension:trta         code:trta-Xanomeline_High_Dose ;
        crnd-dimension:trtemfl      code:trtemfl-Y ;
        crnd-measure:measure        "1"^^xsd:double .

ds:obs576  a                        qb:Observation ;
        rdfs:comment                "Statistic for number of records/Statistics for factor with the dimensions XX"@en ;
        rdfs:label                  "576"^^xsd:string ;
        qb:dataSet                  ds:dataset-TAB5X01 ;
        crnd-attribute:denominator  "_ALL_" ;
        crnd-attribute:unit         "NA"^^xsd:string ;
        crnd-dimension:aedecod      code:aedecod-COUGH ;
        crnd-dimension:aesoc        code:aesoc-RESPIRATORY__THORACIC_AND_MEDIAS ;
        crnd-dimension:factor       code:factor-quantify ;
        crnd-dimension:procedure    code:procedure-count ;
        crnd-dimension:saffl        code:saffl-Y ;
        crnd-dimension:trta         code:trta-Xanomeline_Low_Dose ;
        crnd-dimension:trtemfl      code:trtemfl-Y ;
        crnd-measure:measure        "7"^^xsd:double .

code:aedecod-WOUND  a                 code:Aedecod , skos:Concept ;
        rdfs:comment                  "Coded values from data source. No reconciliation against another source"@en ;
        rrdfqbcrnd0:R-selectionoperator
                "=="^^xsd:string ;
        rrdfqbcrnd0:R-selectionvalue  "WOUND"^^xsd:string ;
        skos:inScheme                 code:aedecod ;
        skos:prefLabel                "WOUND"^^xsd:string ;
        skos:topConceptOf             code:aedecod .

ds:obs323  a                        qb:Observation ;
        rdfs:comment                "Statistic for number of records/Statistics for factor with the dimensions XX"@en ;
        rdfs:label                  "323"^^xsd:string ;
        qb:dataSet                  ds:dataset-TAB5X01 ;
        crnd-attribute:denominator  "_ALL_" ;
        crnd-attribute:unit         "NA"^^xsd:string ;
        crnd-dimension:aedecod      code:aedecod-FALL ;
        crnd-dimension:aesoc        code:aesoc-INJURY__POISONING_AND_PROCEDURAL ;
        crnd-dimension:factor       code:factor-usubjid ;
        crnd-dimension:procedure    code:procedure-countdistinct ;
        crnd-dimension:saffl        code:saffl-Y ;
        crnd-dimension:trta         code:trta-Xanomeline_High_Dose ;
        crnd-dimension:trtemfl      code:trtemfl-Y ;
        crnd-measure:measure        "1"^^xsd:double .

ds:obs078  a                        qb:Observation ;
        rdfs:comment                "Statistic for number of records/Statistics for factor with the dimensions XX"@en ;
        rdfs:label                  "78"^^xsd:string ;
        qb:dataSet                  ds:dataset-TAB5X01 ;
        crnd-attribute:denominator  "_ALL_" ;
        crnd-attribute:unit         "NA"^^xsd:string ;
        crnd-dimension:aedecod      code:aedecod-CONJUNCTIVAL_HAEMORRHAGE ;
        crnd-dimension:aesoc        code:aesoc-EYE_DISORDERS ;
        crnd-dimension:factor       code:factor-quantify ;
        crnd-dimension:procedure    code:procedure-count ;
        crnd-dimension:saffl        code:saffl-Y ;
        crnd-dimension:trta         code:trta-Xanomeline_Low_Dose ;
        crnd-dimension:trtemfl      code:trtemfl-Y ;
        crnd-measure:measure        "1"^^xsd:double .

ds:obs797  a                        qb:Observation ;
        rdfs:comment                "Statistic for number of records/Statistics for factor with the dimensions XX"@en ;
        rdfs:label                  "797"^^xsd:string ;
        qb:dataSet                  ds:dataset-TAB5X01 ;
        crnd-attribute:denominator  "_ALL_" ;
        crnd-attribute:unit         "NA"^^xsd:string ;
        crnd-dimension:aedecod      code:aedecod-_ALL_ ;
        crnd-dimension:aesoc        code:aesoc-PSYCHIATRIC_DISORDERS ;
        crnd-dimension:factor       code:factor-usubjid ;
        crnd-dimension:procedure    code:procedure-countdistinct ;
        crnd-dimension:saffl        code:saffl-Y ;
        crnd-dimension:trta         code:trta-Xanomeline_Low_Dose ;
        crnd-dimension:trtemfl      code:trtemfl-Y ;
        crnd-measure:measure        "10"^^xsd:double .

ds:obs544  a                        qb:Observation ;
        rdfs:comment                "Statistic for number of records/Statistics for factor with the dimensions XX"@en ;
        rdfs:label                  "544"^^xsd:string ;
        qb:dataSet                  ds:dataset-TAB5X01 ;
        crnd-attribute:denominator  "_ALL_" ;
        crnd-attribute:unit         "NA"^^xsd:string ;
        crnd-dimension:aedecod      code:aedecod-CALCULUS_URETHRAL ;
        crnd-dimension:aesoc        code:aesoc-RENAL_AND_URINARY_DISORDERS ;
        crnd-dimension:factor       code:factor-quantify ;
        crnd-dimension:procedure    code:procedure-count ;
        crnd-dimension:saffl        code:saffl-Y ;
        crnd-dimension:trta         code:trta-Xanomeline_High_Dose ;
        crnd-dimension:trtemfl      code:trtemfl-Y ;
        crnd-measure:measure        "1"^^xsd:double .

ds:obs719  a                        qb:Observation ;
        rdfs:comment                "Statistic for number of records/Statistics for factor with the dimensions XX"@en ;
        rdfs:label                  "719"^^xsd:string ;
        qb:dataSet                  ds:dataset-TAB5X01 ;
        crnd-attribute:denominator  "_ALL_" ;
        crnd-attribute:unit         "NA"^^xsd:string ;
        crnd-dimension:aedecod      code:aedecod-_ALL_ ;
        crnd-dimension:aesoc        code:aesoc-CARDIAC_DISORDERS ;
        crnd-dimension:factor       code:factor-usubjid ;
        crnd-dimension:procedure    code:procedure-countdistinct ;
        crnd-dimension:saffl        code:saffl-Y ;
        crnd-dimension:trta         code:trta-Xanomeline_Low_Dose ;
        crnd-dimension:trtemfl      code:trtemfl-Y ;
        crnd-measure:measure        "13"^^xsd:double .

ds:obs590  a                        qb:Observation ;
        rdfs:comment                "Statistic for number of records/Statistics for factor with the dimensions XX"@en ;
        rdfs:label                  "590"^^xsd:string ;
        qb:dataSet                  ds:dataset-TAB5X01 ;
        crnd-attribute:denominator  "_ALL_" ;
        crnd-attribute:unit         "NA"^^xsd:string ;
        crnd-dimension:aedecod      code:aedecod-EPISTAXIS ;
        crnd-dimension:aesoc        code:aesoc-RESPIRATORY__THORACIC_AND_MEDIAS ;
        crnd-dimension:factor       code:factor-quantify ;
        crnd-dimension:procedure    code:procedure-count ;
        crnd-dimension:saffl        code:saffl-Y ;
        crnd-dimension:trta         code:trta-Xanomeline_Low_Dose ;
        crnd-dimension:trtemfl      code:trtemfl-Y ;
        crnd-measure:measure        "1"^^xsd:double .

ds:obs299  a                        qb:Observation ;
        rdfs:comment                "Statistic for number of records/Statistics for factor with the dimensions XX"@en ;
        rdfs:label                  "299"^^xsd:string ;
        qb:dataSet                  ds:dataset-TAB5X01 ;
        crnd-attribute:denominator  "_ALL_" ;
        crnd-attribute:unit         "NA"^^xsd:string ;
        crnd-dimension:aedecod      code:aedecod-URINARY_TRACT_INFECTION ;
        crnd-dimension:aesoc        code:aesoc-INFECTIONS_AND_INFESTATIONS ;
        crnd-dimension:factor       code:factor-usubjid ;
        crnd-dimension:procedure    code:procedure-countdistinct ;
        crnd-dimension:saffl        code:saffl-Y ;
        crnd-dimension:trta         code:trta-Placebo ;
        crnd-dimension:trtemfl      code:trtemfl-Y ;
        crnd-measure:measure        "2"^^xsd:double .

code:aedecod-INFLUENZA
        a                             code:Aedecod , skos:Concept ;
        rdfs:comment                  "Coded values from data source. No reconciliation against another source"@en ;
        rrdfqbcrnd0:R-selectionoperator
                "=="^^xsd:string ;
        rrdfqbcrnd0:R-selectionvalue  "INFLUENZA"^^xsd:string ;
        skos:inScheme                 code:aedecod ;
        skos:prefLabel                "INFLUENZA"^^xsd:string ;
        skos:topConceptOf             code:aedecod .

ds:obs046  a                        qb:Observation ;
        rdfs:comment                "Statistic for number of records/Statistics for factor with the dimensions XX"@en ;
        rdfs:label                  "46"^^xsd:string ;
        qb:dataSet                  ds:dataset-TAB5X01 ;
        crnd-attribute:denominator  "_ALL_" ;
        crnd-attribute:unit         "NA"^^xsd:string ;
        crnd-dimension:aedecod      code:aedecod-SINUS_BRADYCARDIA ;
        crnd-dimension:aesoc        code:aesoc-CARDIAC_DISORDERS ;
        crnd-dimension:factor       code:factor-quantify ;
        crnd-dimension:procedure    code:procedure-count ;
        crnd-dimension:saffl        code:saffl-Y ;
        crnd-dimension:trta         code:trta-Xanomeline_Low_Dose ;
        crnd-dimension:trtemfl      code:trtemfl-Y ;
        crnd-measure:measure        "10"^^xsd:double .

ds:obs765  a                        qb:Observation ;
        rdfs:comment                "Statistic for number of records/Statistics for factor with the dimensions XX"@en ;
        rdfs:label                  "765"^^xsd:string ;
        qb:dataSet                  ds:dataset-TAB5X01 ;
        crnd-attribute:denominator  "_ALL_" ;
        crnd-attribute:unit         "NA"^^xsd:string ;
        crnd-dimension:aedecod      code:aedecod-_ALL_ ;
        crnd-dimension:aesoc        code:aesoc-INVESTIGATIONS ;
        crnd-dimension:factor       code:factor-usubjid ;
        crnd-dimension:procedure    code:procedure-countdistinct ;
        crnd-dimension:saffl        code:saffl-Y ;
        crnd-dimension:trta         code:trta-Placebo ;
        crnd-dimension:trtemfl      code:trtemfl-Y ;
        crnd-measure:measure        "10"^^xsd:double .

code:aedecod-HEMIANOPIA_HOMONYMOUS
        a                             code:Aedecod , skos:Concept ;
        rdfs:comment                  "Coded values from data source. No reconciliation against another source"@en ;
        rrdfqbcrnd0:R-selectionoperator
                "=="^^xsd:string ;
        rrdfqbcrnd0:R-selectionvalue  "HEMIANOPIA HOMONYMOUS"^^xsd:string ;
        skos:inScheme                 code:aedecod ;
        skos:prefLabel                "HEMIANOPIA HOMONYMOUS"^^xsd:string ;
        skos:topConceptOf             code:aedecod .

ds:obs512  a                        qb:Observation ;
        rdfs:comment                "Statistic for number of records/Statistics for factor with the dimensions XX"@en ;
        rdfs:label                  "512"^^xsd:string ;
        qb:dataSet                  ds:dataset-TAB5X01 ;
        crnd-attribute:denominator  "_ALL_" ;
        crnd-attribute:unit         "NA"^^xsd:string ;
        crnd-dimension:aedecod      code:aedecod-CONFUSIONAL_STATE ;
        crnd-dimension:aesoc        code:aesoc-PSYCHIATRIC_DISORDERS ;
        crnd-dimension:factor       code:factor-quantify ;
        crnd-dimension:procedure    code:procedure-count ;
        crnd-dimension:saffl        code:saffl-Y ;
        crnd-dimension:trta         code:trta-Xanomeline_Low_Dose ;
        crnd-dimension:trtemfl      code:trtemfl-Y ;
        crnd-measure:measure        "3"^^xsd:double .

code:aedecod-MALIGNANT_FIBROUS_HISTIOCYTOMA
        a                             code:Aedecod , skos:Concept ;
        rdfs:comment                  "Coded values from data source. No reconciliation against another source"@en ;
        rrdfqbcrnd0:R-selectionoperator
                "=="^^xsd:string ;
        rrdfqbcrnd0:R-selectionvalue  "MALIGNANT FIBROUS HISTIOCYTOMA"^^xsd:string ;
        skos:inScheme                 code:aedecod ;
        skos:prefLabel                "MALIGNANT FIBROUS HISTIOCYTOMA"^^xsd:string ;
        skos:topConceptOf             code:aedecod .

ds:obs092  a                        qb:Observation ;
        rdfs:comment                "Statistic for number of records/Statistics for factor with the dimensions XX"@en ;
        rdfs:label                  "92"^^xsd:string ;
        qb:dataSet                  ds:dataset-TAB5X01 ;
        crnd-attribute:denominator  "_ALL_" ;
        crnd-attribute:unit         "NA"^^xsd:string ;
        crnd-dimension:aedecod      code:aedecod-ABDOMINAL_DISCOMFORT ;
        crnd-dimension:aesoc        code:aesoc-GASTROINTESTINAL_DISORDERS ;
        crnd-dimension:factor       code:factor-quantify ;
        crnd-dimension:procedure    code:procedure-count ;
        crnd-dimension:saffl        code:saffl-Y ;
        crnd-dimension:trta         code:trta-Xanomeline_High_Dose ;
        crnd-dimension:trtemfl      code:trtemfl-Y ;
        crnd-measure:measure        "1"^^xsd:double .

ds:obs267  a                        qb:Observation ;
        rdfs:comment                "Statistic for number of records/Statistics for factor with the dimensions XX"@en ;
        rdfs:label                  "267"^^xsd:string ;
        qb:dataSet                  ds:dataset-TAB5X01 ;
        crnd-attribute:denominator  "_ALL_" ;
        crnd-attribute:unit         "NA"^^xsd:string ;
        crnd-dimension:aedecod      code:aedecod-EAR_INFECTION ;
        crnd-dimension:aesoc        code:aesoc-INFECTIONS_AND_INFESTATIONS ;
        crnd-dimension:factor       code:factor-usubjid ;
        crnd-dimension:procedure    code:procedure-countdistinct ;
        crnd-dimension:saffl        code:saffl-Y ;
        crnd-dimension:trta         code:trta-Placebo ;
        crnd-dimension:trtemfl      code:trtemfl-Y ;
        crnd-measure:measure        "2"^^xsd:double .

ds:obs014  a                        qb:Observation ;
        rdfs:comment                "Statistic for number of records/Statistics for factor with the dimensions XX"@en ;
        rdfs:label                  "14"^^xsd:string ;
        qb:dataSet                  ds:dataset-TAB5X01 ;
        crnd-attribute:denominator  "_ALL_" ;
        crnd-attribute:unit         "NA"^^xsd:string ;
        crnd-dimension:aedecod      code:aedecod-ATRIOVENTRICULAR_BLOCK_FIRST_DEG ;
        crnd-dimension:aesoc        code:aesoc-CARDIAC_DISORDERS ;
        crnd-dimension:factor       code:factor-quantify ;
        crnd-dimension:procedure    code:procedure-count ;
        crnd-dimension:saffl        code:saffl-Y ;
        crnd-dimension:trta         code:trta-Placebo ;
        crnd-dimension:trtemfl      code:trtemfl-Y ;
        crnd-measure:measure        "1"^^xsd:double .

ds:obs733  a                        qb:Observation ;
        rdfs:comment                "Statistic for number of records/Statistics for factor with the dimensions XX"@en ;
        rdfs:label                  "733"^^xsd:string ;
        qb:dataSet                  ds:dataset-TAB5X01 ;
        crnd-attribute:denominator  "_ALL_" ;
        crnd-attribute:unit         "NA"^^xsd:string ;
        crnd-dimension:aedecod      code:aedecod-_ALL_ ;
        crnd-dimension:aesoc        code:aesoc-EYE_DISORDERS ;
        crnd-dimension:factor       code:factor-usubjid ;
        crnd-dimension:procedure    code:procedure-countdistinct ;
        crnd-dimension:saffl        code:saffl-Y ;
        crnd-dimension:trta         code:trta-Xanomeline_High_Dose ;
        crnd-dimension:trtemfl      code:trtemfl-Y ;
        crnd-measure:measure        "1"^^xsd:double .

ds:obs060  a                        qb:Observation ;
        rdfs:comment                "Statistic for number of records/Statistics for factor with the dimensions XX"@en ;
        rdfs:label                  "60"^^xsd:string ;
        qb:dataSet                  ds:dataset-TAB5X01 ;
        crnd-attribute:denominator  "_ALL_" ;
        crnd-attribute:unit         "NA"^^xsd:string ;
        crnd-dimension:aedecod      code:aedecod-VENTRICULAR_EXTRASYSTOLES ;
        crnd-dimension:aesoc        code:aesoc-CARDIAC_DISORDERS ;
        crnd-dimension:factor       code:factor-quantify ;
        crnd-dimension:procedure    code:procedure-count ;
        crnd-dimension:saffl        code:saffl-Y ;
        crnd-dimension:trta         code:trta-Xanomeline_Low_Dose ;
        crnd-dimension:trtemfl      code:trtemfl-Y ;
        crnd-measure:measure        "4"^^xsd:double .

ds:obs488  a                        qb:Observation ;
        rdfs:comment                "Statistic for number of records/Statistics for factor with the dimensions XX"@en ;
        rdfs:label                  "488"^^xsd:string ;
        qb:dataSet                  ds:dataset-TAB5X01 ;
        crnd-attribute:denominator  "_ALL_" ;
        crnd-attribute:unit         "NA"^^xsd:string ;
        crnd-dimension:aedecod      code:aedecod-SYNCOPE ;
        crnd-dimension:aesoc        code:aesoc-NERVOUS_SYSTEM_DISORDERS ;
        crnd-dimension:factor       code:factor-quantify ;
        crnd-dimension:procedure    code:procedure-count ;
        crnd-dimension:saffl        code:saffl-Y ;
        crnd-dimension:trta         code:trta-Xanomeline_High_Dose ;
        crnd-dimension:trtemfl      code:trtemfl-Y ;
        crnd-measure:measure        "4"^^xsd:double .

ds:obs235  a                        qb:Observation ;
        rdfs:comment                "Statistic for number of records/Statistics for factor with the dimensions XX"@en ;
        rdfs:label                  "235"^^xsd:string ;
        qb:dataSet                  ds:dataset-TAB5X01 ;
        crnd-attribute:denominator  "_ALL_" ;
        crnd-attribute:unit         "NA"^^xsd:string ;
        crnd-dimension:aedecod      code:aedecod-OEDEMA_PERIPHERAL ;
        crnd-dimension:aesoc        code:aesoc-GENERAL_DISORDERS_AND_ADMINISTRA ;
        crnd-dimension:factor       code:factor-usubjid ;
        crnd-dimension:procedure    code:procedure-countdistinct ;
        crnd-dimension:saffl        code:saffl-Y ;
        crnd-dimension:trta         code:trta-Xanomeline_Low_Dose ;
        crnd-dimension:trtemfl      code:trtemfl-Y ;
        crnd-measure:measure        "1"^^xsd:double .

ds:dsd-TAB5X01  a     qb:DataStructureDefinition ;
        qb:component  dccs:aesoc , dccs:trta , dccs:unit , dccs:saffl , dccs:aedecod , dccs:factor , dccs:denominator , dccs:trtemfl , dccs:measure , dccs:procedure .

code:aedecod-NASAL_CONGESTION
        a                             code:Aedecod , skos:Concept ;
        rdfs:comment                  "Coded values from data source. No reconciliation against another source"@en ;
        rrdfqbcrnd0:R-selectionoperator
                "=="^^xsd:string ;
        rrdfqbcrnd0:R-selectionvalue  "NASAL CONGESTION"^^xsd:string ;
        skos:inScheme                 code:aedecod ;
        skos:prefLabel                "NASAL CONGESTION"^^xsd:string ;
        skos:topConceptOf             code:aedecod .

ds:obs701  a                        qb:Observation ;
        rdfs:comment                "Statistic for number of records/Statistics for factor with the dimensions XX"@en ;
        rdfs:label                  "701"^^xsd:string ;
        qb:dataSet                  ds:dataset-TAB5X01 ;
        crnd-attribute:denominator  "_ALL_" ;
        crnd-attribute:unit         "NA"^^xsd:string ;
        crnd-dimension:aedecod      code:aedecod-HYPOTENSION ;
        crnd-dimension:aesoc        code:aesoc-VASCULAR_DISORDERS ;
        crnd-dimension:factor       code:factor-usubjid ;
        crnd-dimension:procedure    code:procedure-countdistinct ;
        crnd-dimension:saffl        code:saffl-Y ;
        crnd-dimension:trta         code:trta-Placebo ;
        crnd-dimension:trtemfl      code:trtemfl-Y ;
        crnd-measure:measure        "2"^^xsd:double .

ds:obs281  a                        qb:Observation ;
        rdfs:comment                "Statistic for number of records/Statistics for factor with the dimensions XX"@en ;
        rdfs:label                  "281"^^xsd:string ;
        qb:dataSet                  ds:dataset-TAB5X01 ;
        crnd-attribute:denominator  "_ALL_" ;
        crnd-attribute:unit         "NA"^^xsd:string ;
        crnd-dimension:aedecod      code:aedecod-LOWER_RESPIRATORY_TRACT_INFECTIO ;
        crnd-dimension:aesoc        code:aesoc-INFECTIONS_AND_INFESTATIONS ;
        crnd-dimension:factor       code:factor-usubjid ;
        crnd-dimension:procedure    code:procedure-countdistinct ;
        crnd-dimension:saffl        code:saffl-Y ;
        crnd-dimension:trta         code:trta-Xanomeline_High_Dose ;
        crnd-dimension:trtemfl      code:trtemfl-Y ;
        crnd-measure:measure        "1"^^xsd:double .

ds:obs456  a                        qb:Observation ;
        rdfs:comment                "Statistic for number of records/Statistics for factor with the dimensions XX"@en ;
        rdfs:label                  "456"^^xsd:string ;
        qb:dataSet                  ds:dataset-TAB5X01 ;
        crnd-attribute:denominator  "_ALL_" ;
        crnd-attribute:unit         "NA"^^xsd:string ;
        crnd-dimension:aedecod      code:aedecod-HEADACHE ;
        crnd-dimension:aesoc        code:aesoc-NERVOUS_SYSTEM_DISORDERS ;
        crnd-dimension:factor       code:factor-quantify ;
        crnd-dimension:procedure    code:procedure-count ;
        crnd-dimension:saffl        code:saffl-Y ;
        crnd-dimension:trta         code:trta-Xanomeline_High_Dose ;
        crnd-dimension:trtemfl      code:trtemfl-Y ;
        crnd-measure:measure        "8"^^xsd:double .

code:aedecod-JOINT_DISLOCATION
        a                             code:Aedecod , skos:Concept ;
        rdfs:comment                  "Coded values from data source. No reconciliation against another source"@en ;
        rrdfqbcrnd0:R-selectionoperator
                "=="^^xsd:string ;
        rrdfqbcrnd0:R-selectionvalue  "JOINT DISLOCATION"^^xsd:string ;
        skos:inScheme                 code:aedecod ;
        skos:prefLabel                "JOINT DISLOCATION"^^xsd:string ;
        skos:topConceptOf             code:aedecod .

ds:obs203  a                        qb:Observation ;
        rdfs:comment                "Statistic for number of records/Statistics for factor with the dimensions XX"@en ;
        rdfs:label                  "203"^^xsd:string ;
        qb:dataSet                  ds:dataset-TAB5X01 ;
        crnd-attribute:denominator  "_ALL_" ;
        crnd-attribute:unit         "NA"^^xsd:string ;
        crnd-dimension:aedecod      code:aedecod-CHEST_DISCOMFORT ;
        crnd-dimension:aesoc        code:aesoc-GENERAL_DISORDERS_AND_ADMINISTRA ;
        crnd-dimension:factor       code:factor-usubjid ;
        crnd-dimension:procedure    code:procedure-countdistinct ;
        crnd-dimension:saffl        code:saffl-Y ;
        crnd-dimension:trta         code:trta-Xanomeline_High_Dose ;
        crnd-dimension:trtemfl      code:trtemfl-Y ;
        crnd-measure:measure        "2"^^xsd:double .

code:aedecod-ATRIOVENTRICULAR_BLOCK_SECOND_DE
        a                             code:Aedecod , skos:Concept ;
        rdfs:comment                  "Coded values from data source. No reconciliation against another source"@en ;
        rrdfqbcrnd0:R-selectionoperator
                "=="^^xsd:string ;
        rrdfqbcrnd0:R-selectionvalue  "ATRIOVENTRICULAR BLOCK SECOND DE"^^xsd:string ;
        skos:inScheme                 code:aedecod ;
        skos:prefLabel                "ATRIOVENTRICULAR BLOCK SECOND DE"^^xsd:string ;
        skos:topConceptOf             code:aedecod .

code:procedure  a                 skos:ConceptScheme ;
        rdfs:label                "Codelist scheme: procedure"@en ;
        rdfs:seeAlso              code:Procedure ;
        rrdfqbcrnd0:R-columnname  "procedure"^^xsd:string ;
        rrdfqbcrnd0:codeType      "DATA"^^xsd:string ;
        skos:hasTopConcept        code:procedure-countdistinct , code:procedure-count ;
        skos:notation             "CL_PROCEDURE" ;
        skos:note                 "Specifies the procedure for each observation, group of obs. or all categories (_ALL_)label "@en ;
        skos:prefLabel            "Codelist scheme: procedure"@en .

ds:obs677  a                        qb:Observation ;
        rdfs:comment                "Statistic for number of records/Statistics for factor with the dimensions XX"@en ;
        rdfs:label                  "677"^^xsd:string ;
        qb:dataSet                  ds:dataset-TAB5X01 ;
        crnd-attribute:denominator  "_ALL_" ;
        crnd-attribute:unit         "NA"^^xsd:string ;
        crnd-dimension:aedecod      code:aedecod-SKIN_ULCER ;
        crnd-dimension:aesoc        code:aesoc-SKIN_AND_SUBCUTANEOUS_TISSUE_DIS ;
        crnd-dimension:factor       code:factor-usubjid ;
        crnd-dimension:procedure    code:procedure-countdistinct ;
        crnd-dimension:saffl        code:saffl-Y ;
        crnd-dimension:trta         code:trta-Placebo ;
        crnd-dimension:trtemfl      code:trtemfl-Y ;
        crnd-measure:measure        "1"^^xsd:double .

ds:obs424  a                        qb:Observation ;
        rdfs:comment                "Statistic for number of records/Statistics for factor with the dimensions XX"@en ;
        rdfs:label                  "424"^^xsd:string ;
        qb:dataSet                  ds:dataset-TAB5X01 ;
        crnd-attribute:denominator  "_ALL_" ;
        crnd-attribute:unit         "NA"^^xsd:string ;
        crnd-dimension:aedecod      code:aedecod-PAIN_IN_EXTREMITY ;
        crnd-dimension:aesoc        code:aesoc-MUSCULOSKELETAL_AND_CONNECTIVE_T ;
        crnd-dimension:factor       code:factor-quantify ;
        crnd-dimension:procedure    code:procedure-count ;
        crnd-dimension:saffl        code:saffl-Y ;
        crnd-dimension:trta         code:trta-Placebo ;
        crnd-dimension:trtemfl      code:trtemfl-Y ;
        crnd-measure:measure        "1"^^xsd:double .

code:aesoc-PSYCHIATRIC_DISORDERS
        a                             code:Aesoc , skos:Concept ;
        rdfs:comment                  "Coded values from data source. No reconciliation against another source"@en ;
        rrdfqbcrnd0:R-selectionoperator
                "=="^^xsd:string ;
        rrdfqbcrnd0:R-selectionvalue  "PSYCHIATRIC DISORDERS"^^xsd:string ;
        skos:inScheme                 code:aesoc ;
        skos:prefLabel                "PSYCHIATRIC DISORDERS"^^xsd:string ;
        skos:topConceptOf             code:aesoc .

code:aedecod-CARDIAC_DISORDER
        a                             code:Aedecod , skos:Concept ;
        rdfs:comment                  "Coded values from data source. No reconciliation against another source"@en ;
        rrdfqbcrnd0:R-selectionoperator
                "=="^^xsd:string ;
        rrdfqbcrnd0:R-selectionvalue  "CARDIAC DISORDER"^^xsd:string ;
        skos:inScheme                 code:aedecod ;
        skos:prefLabel                "CARDIAC DISORDER"^^xsd:string ;
        skos:topConceptOf             code:aedecod .

code:aedecod-MYOCARDIAL_INFARCTION
        a                             code:Aedecod , skos:Concept ;
        rdfs:comment                  "Coded values from data source. No reconciliation against another source"@en ;
        rrdfqbcrnd0:R-selectionoperator
                "=="^^xsd:string ;
        rrdfqbcrnd0:R-selectionvalue  "MYOCARDIAL INFARCTION"^^xsd:string ;
        skos:inScheme                 code:aedecod ;
        skos:prefLabel                "MYOCARDIAL INFARCTION"^^xsd:string ;
        skos:topConceptOf             code:aedecod .

code:aedecod-TACHYCARDIA
        a                             code:Aedecod , skos:Concept ;
        rdfs:comment                  "Coded values from data source. No reconciliation against another source"@en ;
        rrdfqbcrnd0:R-selectionoperator
                "=="^^xsd:string ;
        rrdfqbcrnd0:R-selectionvalue  "TACHYCARDIA"^^xsd:string ;
        skos:inScheme                 code:aedecod ;
        skos:prefLabel                "TACHYCARDIA"^^xsd:string ;
        skos:topConceptOf             code:aedecod .

ds:obs179  a                        qb:Observation ;
        rdfs:comment                "Statistic for number of records/Statistics for factor with the dimensions XX"@en ;
        rdfs:label                  "179"^^xsd:string ;
        qb:dataSet                  ds:dataset-TAB5X01 ;
        crnd-attribute:denominator  "_ALL_" ;
        crnd-attribute:unit         "NA"^^xsd:string ;
        crnd-dimension:aedecod      code:aedecod-APPLICATION_SITE_REACTION ;
        crnd-dimension:aesoc        code:aesoc-GENERAL_DISORDERS_AND_ADMINISTRA ;
        crnd-dimension:factor       code:factor-usubjid ;
        crnd-dimension:procedure    code:procedure-countdistinct ;
        crnd-dimension:saffl        code:saffl-Y ;
        crnd-dimension:trta         code:trta-Placebo ;
        crnd-dimension:trtemfl      code:trtemfl-Y ;
        crnd-measure:measure        "1"^^xsd:double .

ds:obs470  a                        qb:Observation ;
        rdfs:comment                "Statistic for number of records/Statistics for factor with the dimensions XX"@en ;
        rdfs:label                  "470"^^xsd:string ;
        qb:dataSet                  ds:dataset-TAB5X01 ;
        crnd-attribute:denominator  "_ALL_" ;
        crnd-attribute:unit         "NA"^^xsd:string ;
        crnd-dimension:aedecod      code:aedecod-PARAESTHESIA_ORAL ;
        crnd-dimension:aesoc        code:aesoc-NERVOUS_SYSTEM_DISORDERS ;
        crnd-dimension:factor       code:factor-quantify ;
        crnd-dimension:procedure    code:procedure-count ;
        crnd-dimension:saffl        code:saffl-Y ;
        crnd-dimension:trta         code:trta-Xanomeline_Low_Dose ;
        crnd-dimension:trtemfl      code:trtemfl-Y ;
        crnd-measure:measure        "1"^^xsd:double .

ds:obs645  a                        qb:Observation ;
        rdfs:comment                "Statistic for number of records/Statistics for factor with the dimensions XX"@en ;
        rdfs:label                  "645"^^xsd:string ;
        qb:dataSet                  ds:dataset-TAB5X01 ;
        crnd-attribute:denominator  "_ALL_" ;
        crnd-attribute:unit         "NA"^^xsd:string ;
        crnd-dimension:aedecod      code:aedecod-PRURITUS ;
        crnd-dimension:aesoc        code:aesoc-SKIN_AND_SUBCUTANEOUS_TISSUE_DIS ;
        crnd-dimension:factor       code:factor-usubjid ;
        crnd-dimension:procedure    code:procedure-countdistinct ;
        crnd-dimension:saffl        code:saffl-Y ;
        crnd-dimension:trta         code:trta-Xanomeline_High_Dose ;
        crnd-dimension:trtemfl      code:trtemfl-Y ;
        crnd-measure:measure        "26"^^xsd:double .

code:aedecod-RESPIRATORY_TRACT_CONGESTION
        a                             code:Aedecod , skos:Concept ;
        rdfs:comment                  "Coded values from data source. No reconciliation against another source"@en ;
        rrdfqbcrnd0:R-selectionoperator
                "=="^^xsd:string ;
        rrdfqbcrnd0:R-selectionvalue  "RESPIRATORY TRACT CONGESTION"^^xsd:string ;
        skos:inScheme                 code:aedecod ;
        skos:prefLabel                "RESPIRATORY TRACT CONGESTION"^^xsd:string ;
        skos:topConceptOf             code:aedecod .

ds:obs691  a                        qb:Observation ;
        rdfs:comment                "Statistic for number of records/Statistics for factor with the dimensions XX"@en ;
        rdfs:label                  "691"^^xsd:string ;
        qb:dataSet                  ds:dataset-TAB5X01 ;
        crnd-attribute:denominator  "_ALL_" ;
        crnd-attribute:unit         "NA"^^xsd:string ;
        crnd-dimension:aedecod      code:aedecod-EYE_LASER_SURGERY ;
        crnd-dimension:aesoc        code:aesoc-SURGICAL_AND_MEDICAL_PROCEDURES ;
        crnd-dimension:factor       code:factor-usubjid ;
        crnd-dimension:procedure    code:procedure-countdistinct ;
        crnd-dimension:saffl        code:saffl-Y ;
        crnd-dimension:trta         code:trta-Placebo ;
        crnd-dimension:trtemfl      code:trtemfl-Y ;
        crnd-measure:measure        "1"^^xsd:double .

ds:obs147  a                        qb:Observation ;
        rdfs:comment                "Statistic for number of records/Statistics for factor with the dimensions XX"@en ;
        rdfs:label                  "147"^^xsd:string ;
        qb:dataSet                  ds:dataset-TAB5X01 ;
        crnd-attribute:denominator  "_ALL_" ;
        crnd-attribute:unit         "NA"^^xsd:string ;
        crnd-dimension:aedecod      code:aedecod-APPLICATION_SITE_DERMATITIS ;
        crnd-dimension:aesoc        code:aesoc-GENERAL_DISORDERS_AND_ADMINISTRA ;
        crnd-dimension:factor       code:factor-usubjid ;
        crnd-dimension:procedure    code:procedure-countdistinct ;
        crnd-dimension:saffl        code:saffl-Y ;
        crnd-dimension:trta         code:trta-Xanomeline_Low_Dose ;
        crnd-dimension:trtemfl      code:trtemfl-Y ;
        crnd-measure:measure        "9"^^xsd:double .

ds:obs613  a                        qb:Observation ;
        rdfs:comment                "Statistic for number of records/Statistics for factor with the dimensions XX"@en ;
        rdfs:label                  "613"^^xsd:string ;
        qb:dataSet                  ds:dataset-TAB5X01 ;
        crnd-attribute:denominator  "_ALL_" ;
        crnd-attribute:unit         "NA"^^xsd:string ;
        crnd-dimension:aedecod      code:aedecod-RHINORRHOEA ;
        crnd-dimension:aesoc        code:aesoc-RESPIRATORY__THORACIC_AND_MEDIAS ;
        crnd-dimension:factor       code:factor-usubjid ;
        crnd-dimension:procedure    code:procedure-countdistinct ;
        crnd-dimension:saffl        code:saffl-Y ;
        crnd-dimension:trta         code:trta-Xanomeline_High_Dose ;
        crnd-dimension:trtemfl      code:trtemfl-Y ;
        crnd-measure:measure        "1"^^xsd:double .

ds:obs193  a                        qb:Observation ;
        rdfs:comment                "Statistic for number of records/Statistics for factor with the dimensions XX"@en ;
        rdfs:label                  "193"^^xsd:string ;
        qb:dataSet                  ds:dataset-TAB5X01 ;
        crnd-attribute:denominator  "_ALL_" ;
        crnd-attribute:unit         "NA"^^xsd:string ;
        crnd-dimension:aedecod      code:aedecod-APPLICATION_SITE_VESICLES ;
        crnd-dimension:aesoc        code:aesoc-GENERAL_DISORDERS_AND_ADMINISTRA ;
        crnd-dimension:factor       code:factor-usubjid ;
        crnd-dimension:procedure    code:procedure-countdistinct ;
        crnd-dimension:saffl        code:saffl-Y ;
        crnd-dimension:trta         code:trta-Xanomeline_High_Dose ;
        crnd-dimension:trtemfl      code:trtemfl-Y ;
        crnd-measure:measure        "6"^^xsd:double .

ds:obs368  a                        qb:Observation ;
        rdfs:comment                "Statistic for number of records/Statistics for factor with the dimensions XX"@en ;
        rdfs:label                  "368"^^xsd:string ;
        qb:dataSet                  ds:dataset-TAB5X01 ;
        crnd-attribute:denominator  "_ALL_" ;
        crnd-attribute:unit         "NA"^^xsd:string ;
        crnd-dimension:aedecod      code:aedecod-ELECTROCARDIOGRAM_T_WAVE_INVERSI ;
        crnd-dimension:aesoc        code:aesoc-INVESTIGATIONS ;
        crnd-dimension:factor       code:factor-quantify ;
        crnd-dimension:procedure    code:procedure-count ;
        crnd-dimension:saffl        code:saffl-Y ;
        crnd-dimension:trta         code:trta-Placebo ;
        crnd-dimension:trtemfl      code:trtemfl-Y ;
        crnd-measure:measure        "3"^^xsd:double .

ds:obs115  a                        qb:Observation ;
        rdfs:comment                "Statistic for number of records/Statistics for factor with the dimensions XX"@en ;
        rdfs:label                  "115"^^xsd:string ;
        qb:dataSet                  ds:dataset-TAB5X01 ;
        crnd-attribute:denominator  "_ALL_" ;
        crnd-attribute:unit         "NA"^^xsd:string ;
        crnd-dimension:aedecod      code:aedecod-GASTROINTESTINAL_HAEMORRHAGE ;
        crnd-dimension:aesoc        code:aesoc-GASTROINTESTINAL_DISORDERS ;
        crnd-dimension:factor       code:factor-usubjid ;
        crnd-dimension:procedure    code:procedure-countdistinct ;
        crnd-dimension:saffl        code:saffl-Y ;
        crnd-dimension:trta         code:trta-Xanomeline_High_Dose ;
        crnd-dimension:trtemfl      code:trtemfl-Y ;
        crnd-measure:measure        "1"^^xsd:double .

ds:obs834  a                        qb:Observation ;
        rdfs:comment                "Statistic for number of records/Statistics for factor with the dimensions XX"@en ;
        rdfs:label                  "834"^^xsd:string ;
        qb:dataSet                  ds:dataset-TAB5X01 ;
        crnd-attribute:denominator  "_ALL_" ;
        crnd-attribute:unit         "NA"^^xsd:string ;
        crnd-dimension:aedecod      code:aedecod-_ALL_ ;
        crnd-dimension:aesoc        code:aesoc-VASCULAR_DISORDERS ;
        crnd-dimension:factor       code:factor-quantify ;
        crnd-dimension:procedure    code:procedure-count ;
        crnd-dimension:saffl        code:saffl-Y ;
        crnd-dimension:trta         code:trta-Xanomeline_Low_Dose ;
        crnd-dimension:trtemfl      code:trtemfl-Y ;
        crnd-measure:measure        "3"^^xsd:double .

code:aedecod-RASH_MACULO-PAPULAR
        a                             code:Aedecod , skos:Concept ;
        rdfs:comment                  "Coded values from data source. No reconciliation against another source"@en ;
        rrdfqbcrnd0:R-selectionoperator
                "=="^^xsd:string ;
        rrdfqbcrnd0:R-selectionvalue  "RASH MACULO-PAPULAR"^^xsd:string ;
        skos:inScheme                 code:aedecod ;
        skos:prefLabel                "RASH MACULO-PAPULAR"^^xsd:string ;
        skos:topConceptOf             code:aedecod .

ds:obs161  a                        qb:Observation ;
        rdfs:comment                "Statistic for number of records/Statistics for factor with the dimensions XX"@en ;
        rdfs:label                  "161"^^xsd:string ;
        qb:dataSet                  ds:dataset-TAB5X01 ;
        crnd-attribute:denominator  "_ALL_" ;
        crnd-attribute:unit         "NA"^^xsd:string ;
        crnd-dimension:aedecod      code:aedecod-APPLICATION_SITE_INDURATION ;
        crnd-dimension:aesoc        code:aesoc-GENERAL_DISORDERS_AND_ADMINISTRA ;
        crnd-dimension:factor       code:factor-usubjid ;
        crnd-dimension:procedure    code:procedure-countdistinct ;
        crnd-dimension:saffl        code:saffl-Y ;
        crnd-dimension:trta         code:trta-Placebo ;
        crnd-dimension:trtemfl      code:trtemfl-Y ;
        crnd-measure:measure        "1"^^xsd:double .

code:aedecod-VISION_BLURRED
        a                             code:Aedecod , skos:Concept ;
        rdfs:comment                  "Coded values from data source. No reconciliation against another source"@en ;
        rrdfqbcrnd0:R-selectionoperator
                "=="^^xsd:string ;
        rrdfqbcrnd0:R-selectionvalue  "VISION BLURRED"^^xsd:string ;
        skos:inScheme                 code:aedecod ;
        skos:prefLabel                "VISION BLURRED"^^xsd:string ;
        skos:topConceptOf             code:aedecod .

ds:obs589  a                        qb:Observation ;
        rdfs:comment                "Statistic for number of records/Statistics for factor with the dimensions XX"@en ;
        rdfs:label                  "589"^^xsd:string ;
        qb:dataSet                  ds:dataset-TAB5X01 ;
        crnd-attribute:denominator  "_ALL_" ;
        crnd-attribute:unit         "NA"^^xsd:string ;
        crnd-dimension:aedecod      code:aedecod-EPISTAXIS ;
        crnd-dimension:aesoc        code:aesoc-RESPIRATORY__THORACIC_AND_MEDIAS ;
        crnd-dimension:factor       code:factor-usubjid ;
        crnd-dimension:procedure    code:procedure-countdistinct ;
        crnd-dimension:saffl        code:saffl-Y ;
        crnd-dimension:trta         code:trta-Xanomeline_Low_Dose ;
        crnd-dimension:trtemfl      code:trtemfl-Y ;
        crnd-measure:measure        "1"^^xsd:double .

ds:obs336  a                        qb:Observation ;
        rdfs:comment                "Statistic for number of records/Statistics for factor with the dimensions XX"@en ;
        rdfs:label                  "336"^^xsd:string ;
        qb:dataSet                  ds:dataset-TAB5X01 ;
        crnd-attribute:denominator  "_ALL_" ;
        crnd-attribute:unit         "NA"^^xsd:string ;
        crnd-dimension:aedecod      code:aedecod-SKIN_LACERATION ;
        crnd-dimension:aesoc        code:aesoc-INJURY__POISONING_AND_PROCEDURAL ;
        crnd-dimension:factor       code:factor-quantify ;
        crnd-dimension:procedure    code:procedure-count ;
        crnd-dimension:saffl        code:saffl-Y ;
        crnd-dimension:trta         code:trta-Xanomeline_Low_Dose ;
        crnd-dimension:trtemfl      code:trtemfl-Y ;
        crnd-measure:measure        "2"^^xsd:double .

code:aesoc-REPRODUCTIVE_SYSTEM_AND_BREAST_D
        a                             code:Aesoc , skos:Concept ;
        rdfs:comment                  "Coded values from data source. No reconciliation against another source"@en ;
        rrdfqbcrnd0:R-selectionoperator
                "=="^^xsd:string ;
        rrdfqbcrnd0:R-selectionvalue  "REPRODUCTIVE SYSTEM AND BREAST D"^^xsd:string ;
        skos:inScheme                 code:aesoc ;
        skos:prefLabel                "REPRODUCTIVE SYSTEM AND BREAST D"^^xsd:string ;
        skos:topConceptOf             code:aesoc .

ds:obs802  a                        qb:Observation ;
        rdfs:comment                "Statistic for number of records/Statistics for factor with the dimensions XX"@en ;
        rdfs:label                  "802"^^xsd:string ;
        qb:dataSet                  ds:dataset-TAB5X01 ;
        crnd-attribute:denominator  "_ALL_" ;
        crnd-attribute:unit         "NA"^^xsd:string ;
        crnd-dimension:aedecod      code:aedecod-_ALL_ ;
        crnd-dimension:aesoc        code:aesoc-RENAL_AND_URINARY_DISORDERS ;
        crnd-dimension:factor       code:factor-quantify ;
        crnd-dimension:procedure    code:procedure-count ;
        crnd-dimension:saffl        code:saffl-Y ;
        crnd-dimension:trta         code:trta-Xanomeline_High_Dose ;
        crnd-dimension:trtemfl      code:trtemfl-Y ;
        crnd-measure:measure        "4"^^xsd:double .

ds:obs382  a                        qb:Observation ;
        rdfs:comment                "Statistic for number of records/Statistics for factor with the dimensions XX"@en ;
        rdfs:label                  "382"^^xsd:string ;
        qb:dataSet                  ds:dataset-TAB5X01 ;
        crnd-attribute:denominator  "_ALL_" ;
        crnd-attribute:unit         "NA"^^xsd:string ;
        crnd-dimension:aedecod      code:aedecod-DECREASED_APPETITE ;
        crnd-dimension:aesoc        code:aesoc-METABOLISM_AND_NUTRITION_DISORDE ;
        crnd-dimension:factor       code:factor-quantify ;
        crnd-dimension:procedure    code:procedure-count ;
        crnd-dimension:saffl        code:saffl-Y ;
        crnd-dimension:trta         code:trta-Placebo ;
        crnd-dimension:trtemfl      code:trtemfl-Y ;
        crnd-measure:measure        "2"^^xsd:double .

ds:obs557  a                        qb:Observation ;
        rdfs:comment                "Statistic for number of records/Statistics for factor with the dimensions XX"@en ;
        rdfs:label                  "557"^^xsd:string ;
        qb:dataSet                  ds:dataset-TAB5X01 ;
        crnd-attribute:denominator  "_ALL_" ;
        crnd-attribute:unit         "NA"^^xsd:string ;
        crnd-dimension:aedecod      code:aedecod-NEPHROLITHIASIS ;
        crnd-dimension:aesoc        code:aesoc-RENAL_AND_URINARY_DISORDERS ;
        crnd-dimension:factor       code:factor-usubjid ;
        crnd-dimension:procedure    code:procedure-countdistinct ;
        crnd-dimension:saffl        code:saffl-Y ;
        crnd-dimension:trta         code:trta-Placebo ;
        crnd-dimension:trtemfl      code:trtemfl-Y ;
        crnd-measure:measure        "1"^^xsd:double .

ds:obs304  a                        qb:Observation ;
        rdfs:comment                "Statistic for number of records/Statistics for factor with the dimensions XX"@en ;
        rdfs:label                  "304"^^xsd:string ;
        qb:dataSet                  ds:dataset-TAB5X01 ;
        crnd-attribute:denominator  "_ALL_" ;
        crnd-attribute:unit         "NA"^^xsd:string ;
        crnd-dimension:aedecod      code:aedecod-VAGINAL_MYCOSIS ;
        crnd-dimension:aesoc        code:aesoc-INFECTIONS_AND_INFESTATIONS ;
        crnd-dimension:factor       code:factor-quantify ;
        crnd-dimension:procedure    code:procedure-count ;
        crnd-dimension:saffl        code:saffl-Y ;
        crnd-dimension:trta         code:trta-Placebo ;
        crnd-dimension:trtemfl      code:trtemfl-Y ;
        crnd-measure:measure        "2"^^xsd:double .

code:aedecod-CHILLS  a                code:Aedecod , skos:Concept ;
        rdfs:comment                  "Coded values from data source. No reconciliation against another source"@en ;
        rrdfqbcrnd0:R-selectionoperator
                "=="^^xsd:string ;
        rrdfqbcrnd0:R-selectionvalue  "CHILLS"^^xsd:string ;
        skos:inScheme                 code:aedecod ;
        skos:prefLabel                "CHILLS"^^xsd:string ;
        skos:topConceptOf             code:aedecod .

code:aedecod-CONFUSIONAL_STATE
        a                             code:Aedecod , skos:Concept ;
        rdfs:comment                  "Coded values from data source. No reconciliation against another source"@en ;
        rrdfqbcrnd0:R-selectionoperator
                "=="^^xsd:string ;
        rrdfqbcrnd0:R-selectionvalue  "CONFUSIONAL STATE"^^xsd:string ;
        skos:inScheme                 code:aedecod ;
        skos:prefLabel                "CONFUSIONAL STATE"^^xsd:string ;
        skos:topConceptOf             code:aedecod .

ds:obs059  a                        qb:Observation ;
        rdfs:comment                "Statistic for number of records/Statistics for factor with the dimensions XX"@en ;
        rdfs:label                  "59"^^xsd:string ;
        qb:dataSet                  ds:dataset-TAB5X01 ;
        crnd-attribute:denominator  "_ALL_" ;
        crnd-attribute:unit         "NA"^^xsd:string ;
        crnd-dimension:aedecod      code:aedecod-VENTRICULAR_EXTRASYSTOLES ;
        crnd-dimension:aesoc        code:aesoc-CARDIAC_DISORDERS ;
        crnd-dimension:factor       code:factor-usubjid ;
        crnd-dimension:procedure    code:procedure-countdistinct ;
        crnd-dimension:saffl        code:saffl-Y ;
        crnd-dimension:trta         code:trta-Xanomeline_Low_Dose ;
        crnd-dimension:trtemfl      code:trtemfl-Y ;
        crnd-measure:measure        "2"^^xsd:double .

ds:obs350  a                        qb:Observation ;
        rdfs:comment                "Statistic for number of records/Statistics for factor with the dimensions XX"@en ;
        rdfs:label                  "350"^^xsd:string ;
        qb:dataSet                  ds:dataset-TAB5X01 ;
        crnd-attribute:denominator  "_ALL_" ;
        crnd-attribute:unit         "NA"^^xsd:string ;
        crnd-dimension:aedecod      code:aedecod-BLOOD_GLUCOSE_INCREASED ;
        crnd-dimension:aesoc        code:aesoc-INVESTIGATIONS ;
        crnd-dimension:factor       code:factor-quantify ;
        crnd-dimension:procedure    code:procedure-count ;
        crnd-dimension:saffl        code:saffl-Y ;
        crnd-dimension:trta         code:trta-Xanomeline_High_Dose ;
        crnd-dimension:trtemfl      code:trtemfl-Y ;
        crnd-measure:measure        "2"^^xsd:double .

ds:obs778  a                        qb:Observation ;
        rdfs:comment                "Statistic for number of records/Statistics for factor with the dimensions XX"@en ;
        rdfs:label                  "778"^^xsd:string ;
        qb:dataSet                  ds:dataset-TAB5X01 ;
        crnd-attribute:denominator  "_ALL_" ;
        crnd-attribute:unit         "NA"^^xsd:string ;
        crnd-dimension:aedecod      code:aedecod-_ALL_ ;
        crnd-dimension:aesoc        code:aesoc-MUSCULOSKELETAL_AND_CONNECTIVE_T ;
        crnd-dimension:factor       code:factor-quantify ;
        crnd-dimension:procedure    code:procedure-count ;
        crnd-dimension:saffl        code:saffl-Y ;
        crnd-dimension:trta         code:trta-Placebo ;
        crnd-dimension:trtemfl      code:trtemfl-Y ;
        crnd-measure:measure        "6"^^xsd:double .

ds:obs525  a                        qb:Observation ;
        rdfs:comment                "Statistic for number of records/Statistics for factor with the dimensions XX"@en ;
        rdfs:label                  "525"^^xsd:string ;
        qb:dataSet                  ds:dataset-TAB5X01 ;
        crnd-attribute:denominator  "_ALL_" ;
        crnd-attribute:unit         "NA"^^xsd:string ;
        crnd-dimension:aedecod      code:aedecod-HALLUCINATION__VISUAL ;
        crnd-dimension:aesoc        code:aesoc-PSYCHIATRIC_DISORDERS ;
        crnd-dimension:factor       code:factor-usubjid ;
        crnd-dimension:procedure    code:procedure-countdistinct ;
        crnd-dimension:saffl        code:saffl-Y ;
        crnd-dimension:trta         code:trta-Xanomeline_High_Dose ;
        crnd-dimension:trtemfl      code:trtemfl-Y ;
        crnd-measure:measure        "1"^^xsd:double .

code:aedecod-URTICARIA
        a                             code:Aedecod , skos:Concept ;
        rdfs:comment                  "Coded values from data source. No reconciliation against another source"@en ;
        rrdfqbcrnd0:R-selectionoperator
                "=="^^xsd:string ;
        rrdfqbcrnd0:R-selectionvalue  "URTICARIA"^^xsd:string ;
        skos:inScheme                 code:aedecod ;
        skos:prefLabel                "URTICARIA"^^xsd:string ;
        skos:topConceptOf             code:aedecod .

ds:obs571  a                        qb:Observation ;
        rdfs:comment                "Statistic for number of records/Statistics for factor with the dimensions XX"@en ;
        rdfs:label                  "571"^^xsd:string ;
        qb:dataSet                  ds:dataset-TAB5X01 ;
        crnd-attribute:denominator  "_ALL_" ;
        crnd-attribute:unit         "NA"^^xsd:string ;
        crnd-dimension:aedecod      code:aedecod-COUGH ;
        crnd-dimension:aesoc        code:aesoc-RESPIRATORY__THORACIC_AND_MEDIAS ;
        crnd-dimension:factor       code:factor-usubjid ;
        crnd-dimension:procedure    code:procedure-countdistinct ;
        crnd-dimension:saffl        code:saffl-Y ;
        crnd-dimension:trta         code:trta-Placebo ;
        crnd-dimension:trtemfl      code:trtemfl-Y ;
        crnd-measure:measure        "1"^^xsd:double .

ds:obs027  a                        qb:Observation ;
        rdfs:comment                "Statistic for number of records/Statistics for factor with the dimensions XX"@en ;
        rdfs:label                  "27"^^xsd:string ;
        qb:dataSet                  ds:dataset-TAB5X01 ;
        crnd-attribute:denominator  "_ALL_" ;
        crnd-attribute:unit         "NA"^^xsd:string ;
        crnd-dimension:aedecod      code:aedecod-CARDIAC_DISORDER ;
        crnd-dimension:aesoc        code:aesoc-CARDIAC_DISORDERS ;
        crnd-dimension:factor       code:factor-usubjid ;
        crnd-dimension:procedure    code:procedure-countdistinct ;
        crnd-dimension:saffl        code:saffl-Y ;
        crnd-dimension:trta         code:trta-Xanomeline_High_Dose ;
        crnd-dimension:trtemfl      code:trtemfl-Y ;
        crnd-measure:measure        "1"^^xsd:double .

ds:obs746  a                        qb:Observation ;
        rdfs:comment                "Statistic for number of records/Statistics for factor with the dimensions XX"@en ;
        rdfs:label                  "746"^^xsd:string ;
        qb:dataSet                  ds:dataset-TAB5X01 ;
        crnd-attribute:denominator  "_ALL_" ;
        crnd-attribute:unit         "NA"^^xsd:string ;
        crnd-dimension:aedecod      code:aedecod-_ALL_ ;
        crnd-dimension:aesoc        code:aesoc-GENERAL_DISORDERS_AND_ADMINISTRA ;
        crnd-dimension:factor       code:factor-quantify ;
        crnd-dimension:procedure    code:procedure-count ;
        crnd-dimension:saffl        code:saffl-Y ;
        crnd-dimension:trta         code:trta-Xanomeline_High_Dose ;
        crnd-dimension:trtemfl      code:trtemfl-Y ;
        crnd-measure:measure        "124"^^xsd:double .

ds:obs792  a                        qb:Observation ;
        rdfs:comment                "Statistic for number of records/Statistics for factor with the dimensions XX"@en ;
        rdfs:label                  "792"^^xsd:string ;
        qb:dataSet                  ds:dataset-TAB5X01 ;
        crnd-attribute:denominator  "_ALL_" ;
        crnd-attribute:unit         "NA"^^xsd:string ;
        crnd-dimension:aedecod      code:aedecod-_ALL_ ;
        crnd-dimension:aesoc        code:aesoc-NERVOUS_SYSTEM_DISORDERS ;
        crnd-dimension:factor       code:factor-quantify ;
        crnd-dimension:procedure    code:procedure-count ;
        crnd-dimension:saffl        code:saffl-Y ;
        crnd-dimension:trta         code:trta-Xanomeline_Low_Dose ;
        crnd-dimension:trtemfl      code:trtemfl-Y ;
        crnd-measure:measure        "40"^^xsd:double .

code:aedecod-LIBIDO_DECREASED
        a                             code:Aedecod , skos:Concept ;
        rdfs:comment                  "Coded values from data source. No reconciliation against another source"@en ;
        rrdfqbcrnd0:R-selectionoperator
                "=="^^xsd:string ;
        rrdfqbcrnd0:R-selectionvalue  "LIBIDO DECREASED"^^xsd:string ;
        skos:inScheme                 code:aedecod ;
        skos:prefLabel                "LIBIDO DECREASED"^^xsd:string ;
        skos:topConceptOf             code:aedecod .

ds:obs073  a                        qb:Observation ;
        rdfs:comment                "Statistic for number of records/Statistics for factor with the dimensions XX"@en ;
        rdfs:label                  "73"^^xsd:string ;
        qb:dataSet                  ds:dataset-TAB5X01 ;
        crnd-attribute:denominator  "_ALL_" ;
        crnd-attribute:unit         "NA"^^xsd:string ;
        crnd-dimension:aedecod      code:aedecod-VERTIGO ;
        crnd-dimension:aesoc        code:aesoc-EAR_AND_LABYRINTH_DISORDERS ;
        crnd-dimension:factor       code:factor-usubjid ;
        crnd-dimension:procedure    code:procedure-countdistinct ;
        crnd-dimension:saffl        code:saffl-Y ;
        crnd-dimension:trta         code:trta-Xanomeline_High_Dose ;
        crnd-dimension:trtemfl      code:trtemfl-Y ;
        crnd-measure:measure        "1"^^xsd:double .

code:aedecod-HYPERSENSITIVITY
        a                             code:Aedecod , skos:Concept ;
        rdfs:comment                  "Coded values from data source. No reconciliation against another source"@en ;
        rrdfqbcrnd0:R-selectionoperator
                "=="^^xsd:string ;
        rrdfqbcrnd0:R-selectionvalue  "HYPERSENSITIVITY"^^xsd:string ;
        skos:inScheme                 code:aedecod ;
        skos:prefLabel                "HYPERSENSITIVITY"^^xsd:string ;
        skos:topConceptOf             code:aedecod .

code:Aesoc  a            rdfs:Class , owl:Class ;
        rdfs:comment     "Specifies the aesoc for each observation"@en ;
        rdfs:label       "Class for code list: aesoc"@en ;
        rdfs:seeAlso     code:aesoc ;
        rdfs:subClassOf  skos:Concept .

ds:obs248  a                        qb:Observation ;
        rdfs:comment                "Statistic for number of records/Statistics for factor with the dimensions XX"@en ;
        rdfs:label                  "248"^^xsd:string ;
        qb:dataSet                  ds:dataset-TAB5X01 ;
        crnd-attribute:denominator  "_ALL_" ;
        crnd-attribute:unit         "NA"^^xsd:string ;
        crnd-dimension:aedecod      code:aedecod-SUDDEN_DEATH ;
        crnd-dimension:aesoc        code:aesoc-GENERAL_DISORDERS_AND_ADMINISTRA ;
        crnd-dimension:factor       code:factor-quantify ;
        crnd-dimension:procedure    code:procedure-count ;
        crnd-dimension:saffl        code:saffl-Y ;
        crnd-dimension:trta         code:trta-Xanomeline_Low_Dose ;
        crnd-dimension:trtemfl      code:trtemfl-Y ;
        crnd-measure:measure        "1"^^xsd:double .

code:aedecod-APPLICATION_SITE_URTICARIA
        a                             code:Aedecod , skos:Concept ;
        rdfs:comment                  "Coded values from data source. No reconciliation against another source"@en ;
        rrdfqbcrnd0:R-selectionoperator
                "=="^^xsd:string ;
        rrdfqbcrnd0:R-selectionvalue  "APPLICATION SITE URTICARIA"^^xsd:string ;
        skos:inScheme                 code:aedecod ;
        skos:prefLabel                "APPLICATION SITE URTICARIA"^^xsd:string ;
        skos:topConceptOf             code:aedecod .

ds:obs714  a                        qb:Observation ;
        rdfs:comment                "Statistic for number of records/Statistics for factor with the dimensions XX"@en ;
        rdfs:label                  "714"^^xsd:string ;
        qb:dataSet                  ds:dataset-TAB5X01 ;
        crnd-attribute:denominator  "_ALL_" ;
        crnd-attribute:unit         "NA"^^xsd:string ;
        crnd-dimension:aedecod      code:aedecod-_ALL_ ;
        crnd-dimension:aesoc        code:aesoc-_ALL_ ;
        crnd-dimension:factor       code:factor-quantify ;
        crnd-dimension:procedure    code:procedure-count ;
        crnd-dimension:saffl        code:saffl-Y ;
        crnd-dimension:trta         code:trta-Xanomeline_Low_Dose ;
        crnd-dimension:trtemfl      code:trtemfl-Y ;
        crnd-measure:measure        "412"^^xsd:double .

ds:obs294  a                        qb:Observation ;
        rdfs:comment                "Statistic for number of records/Statistics for factor with the dimensions XX"@en ;
        rdfs:label                  "294"^^xsd:string ;
        qb:dataSet                  ds:dataset-TAB5X01 ;
        crnd-attribute:denominator  "_ALL_" ;
        crnd-attribute:unit         "NA"^^xsd:string ;
        crnd-dimension:aedecod      code:aedecod-UPPER_RESPIRATORY_TRACT_INFECTIO ;
        crnd-dimension:aesoc        code:aesoc-INFECTIONS_AND_INFESTATIONS ;
        crnd-dimension:factor       code:factor-quantify ;
        crnd-dimension:procedure    code:procedure-count ;
        crnd-dimension:saffl        code:saffl-Y ;
        crnd-dimension:trta         code:trta-Placebo ;
        crnd-dimension:trtemfl      code:trtemfl-Y ;
        crnd-measure:measure        "12"^^xsd:double .

code:aedecod-CONTUSION
        a                             code:Aedecod , skos:Concept ;
        rdfs:comment                  "Coded values from data source. No reconciliation against another source"@en ;
        rrdfqbcrnd0:R-selectionoperator
                "=="^^xsd:string ;
        rrdfqbcrnd0:R-selectionvalue  "CONTUSION"^^xsd:string ;
        skos:inScheme                 code:aedecod ;
        skos:prefLabel                "CONTUSION"^^xsd:string ;
        skos:topConceptOf             code:aedecod .

ds:obs041  a                        qb:Observation ;
        rdfs:comment                "Statistic for number of records/Statistics for factor with the dimensions XX"@en ;
        rdfs:label                  "41"^^xsd:string ;
        qb:dataSet                  ds:dataset-TAB5X01 ;
        crnd-attribute:denominator  "_ALL_" ;
        crnd-attribute:unit         "NA"^^xsd:string ;
        crnd-dimension:aedecod      code:aedecod-SINUS_BRADYCARDIA ;
        crnd-dimension:aesoc        code:aesoc-CARDIAC_DISORDERS ;
        crnd-dimension:factor       code:factor-usubjid ;
        crnd-dimension:procedure    code:procedure-countdistinct ;
        crnd-dimension:saffl        code:saffl-Y ;
        crnd-dimension:trta         code:trta-Placebo ;
        crnd-dimension:trtemfl      code:trtemfl-Y ;
        crnd-measure:measure        "2"^^xsd:double .

ds:obs469  a                        qb:Observation ;
        rdfs:comment                "Statistic for number of records/Statistics for factor with the dimensions XX"@en ;
        rdfs:label                  "469"^^xsd:string ;
        qb:dataSet                  ds:dataset-TAB5X01 ;
        crnd-attribute:denominator  "_ALL_" ;
        crnd-attribute:unit         "NA"^^xsd:string ;
        crnd-dimension:aedecod      code:aedecod-PARAESTHESIA_ORAL ;
        crnd-dimension:aesoc        code:aesoc-NERVOUS_SYSTEM_DISORDERS ;
        crnd-dimension:factor       code:factor-usubjid ;
        crnd-dimension:procedure    code:procedure-countdistinct ;
        crnd-dimension:saffl        code:saffl-Y ;
        crnd-dimension:trta         code:trta-Xanomeline_Low_Dose ;
        crnd-dimension:trtemfl      code:trtemfl-Y ;
        crnd-measure:measure        "1"^^xsd:double .

ds:obs760  a                        qb:Observation ;
        rdfs:comment                "Statistic for number of records/Statistics for factor with the dimensions XX"@en ;
        rdfs:label                  "760"^^xsd:string ;
        qb:dataSet                  ds:dataset-TAB5X01 ;
        crnd-attribute:denominator  "_ALL_" ;
        crnd-attribute:unit         "NA"^^xsd:string ;
        crnd-dimension:aedecod      code:aedecod-_ALL_ ;
        crnd-dimension:aesoc        code:aesoc-INJURY__POISONING_AND_PROCEDURAL ;
        crnd-dimension:factor       code:factor-quantify ;
        crnd-dimension:procedure    code:procedure-count ;
        crnd-dimension:saffl        code:saffl-Y ;
        crnd-dimension:trta         code:trta-Placebo ;
        crnd-dimension:trtemfl      code:trtemfl-Y ;
        crnd-measure:measure        "9"^^xsd:double .

ds:obs216  a                        qb:Observation ;
        rdfs:comment                "Statistic for number of records/Statistics for factor with the dimensions XX"@en ;
        rdfs:label                  "216"^^xsd:string ;
        qb:dataSet                  ds:dataset-TAB5X01 ;
        crnd-attribute:denominator  "_ALL_" ;
        crnd-attribute:unit         "NA"^^xsd:string ;
        crnd-dimension:aedecod      code:aedecod-FATIGUE ;
        crnd-dimension:aesoc        code:aesoc-GENERAL_DISORDERS_AND_ADMINISTRA ;
        crnd-dimension:factor       code:factor-quantify ;
        crnd-dimension:procedure    code:procedure-count ;
        crnd-dimension:saffl        code:saffl-Y ;
        crnd-dimension:trta         code:trta-Xanomeline_High_Dose ;
        crnd-dimension:trtemfl      code:trtemfl-Y ;
        crnd-measure:measure        "5"^^xsd:double .

ds:obs262  a                        qb:Observation ;
        rdfs:comment                "Statistic for number of records/Statistics for factor with the dimensions XX"@en ;
        rdfs:label                  "262"^^xsd:string ;
        qb:dataSet                  ds:dataset-TAB5X01 ;
        crnd-attribute:denominator  "_ALL_" ;
        crnd-attribute:unit         "NA"^^xsd:string ;
        crnd-dimension:aedecod      code:aedecod-CERVICITIS ;
        crnd-dimension:aesoc        code:aesoc-INFECTIONS_AND_INFESTATIONS ;
        crnd-dimension:factor       code:factor-quantify ;
        crnd-dimension:procedure    code:procedure-count ;
        crnd-dimension:saffl        code:saffl-Y ;
        crnd-dimension:trta         code:trta-Placebo ;
        crnd-dimension:trtemfl      code:trtemfl-Y ;
        crnd-measure:measure        "2"^^xsd:double .

ds:obs437  a                        qb:Observation ;
        rdfs:comment                "Statistic for number of records/Statistics for factor with the dimensions XX"@en ;
        rdfs:label                  "437"^^xsd:string ;
        qb:dataSet                  ds:dataset-TAB5X01 ;
        crnd-attribute:denominator  "_ALL_" ;
        crnd-attribute:unit         "NA"^^xsd:string ;
        crnd-dimension:aedecod      code:aedecod-BALANCE_DISORDER ;
        crnd-dimension:aesoc        code:aesoc-NERVOUS_SYSTEM_DISORDERS ;
        crnd-dimension:factor       code:factor-usubjid ;
        crnd-dimension:procedure    code:procedure-countdistinct ;
        crnd-dimension:saffl        code:saffl-Y ;
        crnd-dimension:trta         code:trta-Xanomeline_Low_Dose ;
        crnd-dimension:trtemfl      code:trtemfl-Y ;
        crnd-measure:measure        "1"^^xsd:double .

code:Saffl  a            rdfs:Class , owl:Class ;
        rdfs:comment     "Specifies the saffl for each observation"@en ;
        rdfs:label       "Class for code list: saffl"@en ;
        rdfs:seeAlso     code:saffl ;
        rdfs:subClassOf  skos:Concept .

code:aedecod-BUNDLE_BRANCH_BLOCK_LEFT
        a                             code:Aedecod , skos:Concept ;
        rdfs:comment                  "Coded values from data source. No reconciliation against another source"@en ;
        rrdfqbcrnd0:R-selectionoperator
                "=="^^xsd:string ;
        rrdfqbcrnd0:R-selectionvalue  "BUNDLE BRANCH BLOCK LEFT"^^xsd:string ;
        skos:inScheme                 code:aedecod ;
        skos:prefLabel                "BUNDLE BRANCH BLOCK LEFT"^^xsd:string ;
        skos:topConceptOf             code:aedecod .

ds:obs483  a                        qb:Observation ;
        rdfs:comment                "Statistic for number of records/Statistics for factor with the dimensions XX"@en ;
        rdfs:label                  "483"^^xsd:string ;
        qb:dataSet                  ds:dataset-TAB5X01 ;
        crnd-attribute:denominator  "_ALL_" ;
        crnd-attribute:unit         "NA"^^xsd:string ;
        crnd-dimension:aedecod      code:aedecod-SOMNOLENCE ;
        crnd-dimension:aesoc        code:aesoc-NERVOUS_SYSTEM_DISORDERS ;
        crnd-dimension:factor       code:factor-usubjid ;
        crnd-dimension:procedure    code:procedure-countdistinct ;
        crnd-dimension:saffl        code:saffl-Y ;
        crnd-dimension:trta         code:trta-Xanomeline_Low_Dose ;
        crnd-dimension:trtemfl      code:trtemfl-Y ;
        crnd-measure:measure        "3"^^xsd:double .

ds:obs230  a                        qb:Observation ;
        rdfs:comment                "Statistic for number of records/Statistics for factor with the dimensions XX"@en ;
        rdfs:label                  "230"^^xsd:string ;
        qb:dataSet                  ds:dataset-TAB5X01 ;
        crnd-attribute:denominator  "_ALL_" ;
        crnd-attribute:unit         "NA"^^xsd:string ;
        crnd-dimension:aedecod      code:aedecod-OEDEMA ;
        crnd-dimension:aesoc        code:aesoc-GENERAL_DISORDERS_AND_ADMINISTRA ;
        crnd-dimension:factor       code:factor-quantify ;
        crnd-dimension:procedure    code:procedure-count ;
        crnd-dimension:saffl        code:saffl-Y ;
        crnd-dimension:trta         code:trta-Xanomeline_Low_Dose ;
        crnd-dimension:trtemfl      code:trtemfl-Y ;
        crnd-measure:measure        "2"^^xsd:double .

ds:obs658  a                        qb:Observation ;
        rdfs:comment                "Statistic for number of records/Statistics for factor with the dimensions XX"@en ;
        rdfs:label                  "658"^^xsd:string ;
        qb:dataSet                  ds:dataset-TAB5X01 ;
        crnd-attribute:denominator  "_ALL_" ;
        crnd-attribute:unit         "NA"^^xsd:string ;
        crnd-dimension:aedecod      code:aedecod-RASH ;
        crnd-dimension:aesoc        code:aesoc-SKIN_AND_SUBCUTANEOUS_TISSUE_DIS ;
        crnd-dimension:factor       code:factor-quantify ;
        crnd-dimension:procedure    code:procedure-count ;
        crnd-dimension:saffl        code:saffl-Y ;
        crnd-dimension:trta         code:trta-Xanomeline_Low_Dose ;
        crnd-dimension:trtemfl      code:trtemfl-Y ;
        crnd-measure:measure        "18"^^xsd:double .

ds:obs405  a                        qb:Observation ;
        rdfs:comment                "Statistic for number of records/Statistics for factor with the dimensions XX"@en ;
        rdfs:label                  "405"^^xsd:string ;
        qb:dataSet                  ds:dataset-TAB5X01 ;
        crnd-attribute:denominator  "_ALL_" ;
        crnd-attribute:unit         "NA"^^xsd:string ;
        crnd-dimension:aedecod      code:aedecod-ARTHRITIS ;
        crnd-dimension:aesoc        code:aesoc-MUSCULOSKELETAL_AND_CONNECTIVE_T ;
        crnd-dimension:factor       code:factor-usubjid ;
        crnd-dimension:procedure    code:procedure-countdistinct ;
        crnd-dimension:saffl        code:saffl-Y ;
        crnd-dimension:trta         code:trta-Xanomeline_High_Dose ;
        crnd-dimension:trtemfl      code:trtemfl-Y ;
        crnd-measure:measure        "1"^^xsd:double .

code:aedecod-GLOSSITIS
        a                             code:Aedecod , skos:Concept ;
        rdfs:comment                  "Coded values from data source. No reconciliation against another source"@en ;
        rrdfqbcrnd0:R-selectionoperator
                "=="^^xsd:string ;
        rrdfqbcrnd0:R-selectionvalue  "GLOSSITIS"^^xsd:string ;
        skos:inScheme                 code:aedecod ;
        skos:prefLabel                "GLOSSITIS"^^xsd:string ;
        skos:topConceptOf             code:aedecod .

ds:obs451  a                        qb:Observation ;
        rdfs:comment                "Statistic for number of records/Statistics for factor with the dimensions XX"@en ;
        rdfs:label                  "451"^^xsd:string ;
        qb:dataSet                  ds:dataset-TAB5X01 ;
        crnd-attribute:denominator  "_ALL_" ;
        crnd-attribute:unit         "NA"^^xsd:string ;
        crnd-dimension:aedecod      code:aedecod-DIZZINESS ;
        crnd-dimension:aesoc        code:aesoc-NERVOUS_SYSTEM_DISORDERS ;
        crnd-dimension:factor       code:factor-usubjid ;
        crnd-dimension:procedure    code:procedure-countdistinct ;
        crnd-dimension:saffl        code:saffl-Y ;
        crnd-dimension:trta         code:trta-Xanomeline_Low_Dose ;
        crnd-dimension:trtemfl      code:trtemfl-Y ;
        crnd-measure:measure        "8"^^xsd:double .

ds:obs626  a                        qb:Observation ;
        rdfs:comment                "Statistic for number of records/Statistics for factor with the dimensions XX"@en ;
        rdfs:label                  "626"^^xsd:string ;
        qb:dataSet                  ds:dataset-TAB5X01 ;
        crnd-attribute:denominator  "_ALL_" ;
        crnd-attribute:unit         "NA"^^xsd:string ;
        crnd-dimension:aedecod      code:aedecod-COLD_SWEAT ;
        crnd-dimension:aesoc        code:aesoc-SKIN_AND_SUBCUTANEOUS_TISSUE_DIS ;
        crnd-dimension:factor       code:factor-quantify ;
        crnd-dimension:procedure    code:procedure-count ;
        crnd-dimension:saffl        code:saffl-Y ;
        crnd-dimension:trta         code:trta-Placebo ;
        crnd-dimension:trtemfl      code:trtemfl-Y ;
        crnd-measure:measure        "3"^^xsd:double .

code:Factor  a           rdfs:Class , owl:Class ;
        rdfs:comment     "Specifies the factor for each observation"@en ;
        rdfs:label       "Class for code list: factor"@en ;
        rdfs:seeAlso     code:factor ;
        rdfs:subClassOf  skos:Concept .

code:aedecod-DYSPHAGIA
        a                             code:Aedecod , skos:Concept ;
        rdfs:comment                  "Coded values from data source. No reconciliation against another source"@en ;
        rrdfqbcrnd0:R-selectionoperator
                "=="^^xsd:string ;
        rrdfqbcrnd0:R-selectionvalue  "DYSPHAGIA"^^xsd:string ;
        skos:inScheme                 code:aedecod ;
        skos:prefLabel                "DYSPHAGIA"^^xsd:string ;
        skos:topConceptOf             code:aedecod .

ds:obs672  a                        qb:Observation ;
        rdfs:comment                "Statistic for number of records/Statistics for factor with the dimensions XX"@en ;
        rdfs:label                  "672"^^xsd:string ;
        qb:dataSet                  ds:dataset-TAB5X01 ;
        crnd-attribute:denominator  "_ALL_" ;
        crnd-attribute:unit         "NA"^^xsd:string ;
        crnd-dimension:aedecod      code:aedecod-SKIN_IRRITATION ;
        crnd-dimension:aesoc        code:aesoc-SKIN_AND_SUBCUTANEOUS_TISSUE_DIS ;
        crnd-dimension:factor       code:factor-quantify ;
        crnd-dimension:procedure    code:procedure-count ;
        crnd-dimension:saffl        code:saffl-Y ;
        crnd-dimension:trta         code:trta-Xanomeline_High_Dose ;
        crnd-dimension:trtemfl      code:trtemfl-Y ;
        crnd-measure:measure        "8"^^xsd:double .

ds:obs128  a                        qb:Observation ;
        rdfs:comment                "Statistic for number of records/Statistics for factor with the dimensions XX"@en ;
        rdfs:label                  "128"^^xsd:string ;
        qb:dataSet                  ds:dataset-TAB5X01 ;
        crnd-attribute:denominator  "_ALL_" ;
        crnd-attribute:unit         "NA"^^xsd:string ;
        crnd-dimension:aedecod      code:aedecod-NAUSEA ;
        crnd-dimension:aesoc        code:aesoc-GASTROINTESTINAL_DISORDERS ;
        crnd-dimension:factor       code:factor-quantify ;
        crnd-dimension:procedure    code:procedure-count ;
        crnd-dimension:saffl        code:saffl-Y ;
        crnd-dimension:trta         code:trta-Xanomeline_Low_Dose ;
        crnd-dimension:trtemfl      code:trtemfl-Y ;
        crnd-measure:measure        "5"^^xsd:double .

ds:obs174  a                        qb:Observation ;
        rdfs:comment                "Statistic for number of records/Statistics for factor with the dimensions XX"@en ;
        rdfs:label                  "174"^^xsd:string ;
        qb:dataSet                  ds:dataset-TAB5X01 ;
        crnd-attribute:denominator  "_ALL_" ;
        crnd-attribute:unit         "NA"^^xsd:string ;
        crnd-dimension:aedecod      code:aedecod-APPLICATION_SITE_PRURITUS ;
        crnd-dimension:aesoc        code:aesoc-GENERAL_DISORDERS_AND_ADMINISTRA ;
        crnd-dimension:factor       code:factor-quantify ;
        crnd-dimension:procedure    code:procedure-count ;
        crnd-dimension:saffl        code:saffl-Y ;
        crnd-dimension:trta         code:trta-Placebo ;
        crnd-dimension:trtemfl      code:trtemfl-Y ;
        crnd-measure:measure        "10"^^xsd:double .

ds:obs349  a                        qb:Observation ;
        rdfs:comment                "Statistic for number of records/Statistics for factor with the dimensions XX"@en ;
        rdfs:label                  "349"^^xsd:string ;
        qb:dataSet                  ds:dataset-TAB5X01 ;
        crnd-attribute:denominator  "_ALL_" ;
        crnd-attribute:unit         "NA"^^xsd:string ;
        crnd-dimension:aedecod      code:aedecod-BLOOD_GLUCOSE_INCREASED ;
        crnd-dimension:aesoc        code:aesoc-INVESTIGATIONS ;
        crnd-dimension:factor       code:factor-usubjid ;
        crnd-dimension:procedure    code:procedure-countdistinct ;
        crnd-dimension:saffl        code:saffl-Y ;
        crnd-dimension:trta         code:trta-Xanomeline_High_Dose ;
        crnd-dimension:trtemfl      code:trtemfl-Y ;
        crnd-measure:measure        "1"^^xsd:double .

code:aedecod-SKIN_IRRITATION
        a                             code:Aedecod , skos:Concept ;
        rdfs:comment                  "Coded values from data source. No reconciliation against another source"@en ;
        rrdfqbcrnd0:R-selectionoperator
                "=="^^xsd:string ;
        rrdfqbcrnd0:R-selectionvalue  "SKIN IRRITATION"^^xsd:string ;
        skos:inScheme                 code:aedecod ;
        skos:prefLabel                "SKIN IRRITATION"^^xsd:string ;
        skos:topConceptOf             code:aedecod .

ds:obs640  a                        qb:Observation ;
        rdfs:comment                "Statistic for number of records/Statistics for factor with the dimensions XX"@en ;
        rdfs:label                  "640"^^xsd:string ;
        qb:dataSet                  ds:dataset-TAB5X01 ;
        crnd-attribute:denominator  "_ALL_" ;
        crnd-attribute:unit         "NA"^^xsd:string ;
        crnd-dimension:aedecod      code:aedecod-HYPERHIDROSIS ;
        crnd-dimension:aesoc        code:aesoc-SKIN_AND_SUBCUTANEOUS_TISSUE_DIS ;
        crnd-dimension:factor       code:factor-quantify ;
        crnd-dimension:procedure    code:procedure-count ;
        crnd-dimension:saffl        code:saffl-Y ;
        crnd-dimension:trta         code:trta-Xanomeline_High_Dose ;
        crnd-dimension:trtemfl      code:trtemfl-Y ;
        crnd-measure:measure        "10"^^xsd:double .

ds:obs815  a                        qb:Observation ;
        rdfs:comment                "Statistic for number of records/Statistics for factor with the dimensions XX"@en ;
        rdfs:label                  "815"^^xsd:string ;
        qb:dataSet                  ds:dataset-TAB5X01 ;
        crnd-attribute:denominator  "_ALL_" ;
        crnd-attribute:unit         "NA"^^xsd:string ;
        crnd-dimension:aedecod      code:aedecod-_ALL_ ;
        crnd-dimension:aesoc        code:aesoc-SKIN_AND_SUBCUTANEOUS_TISSUE_DIS ;
        crnd-dimension:factor       code:factor-usubjid ;
        crnd-dimension:procedure    code:procedure-countdistinct ;
        crnd-dimension:saffl        code:saffl-Y ;
        crnd-dimension:trta         code:trta-Placebo ;
        crnd-dimension:trtemfl      code:trtemfl-Y ;
        crnd-measure:measure        "20"^^xsd:double .

ds:obs395  a                        qb:Observation ;
        rdfs:comment                "Statistic for number of records/Statistics for factor with the dimensions XX"@en ;
        rdfs:label                  "395"^^xsd:string ;
        qb:dataSet                  ds:dataset-TAB5X01 ;
        crnd-attribute:denominator  "_ALL_" ;
        crnd-attribute:unit         "NA"^^xsd:string ;
        crnd-dimension:aedecod      code:aedecod-INCREASED_APPETITE ;
        crnd-dimension:aesoc        code:aesoc-METABOLISM_AND_NUTRITION_DISORDE ;
        crnd-dimension:factor       code:factor-usubjid ;
        crnd-dimension:procedure    code:procedure-countdistinct ;
        crnd-dimension:saffl        code:saffl-Y ;
        crnd-dimension:trta         code:trta-Placebo ;
        crnd-dimension:trtemfl      code:trtemfl-Y ;
        crnd-measure:measure        "1"^^xsd:double .

ds:obs142  a                        qb:Observation ;
        rdfs:comment                "Statistic for number of records/Statistics for factor with the dimensions XX"@en ;
        rdfs:label                  "142"^^xsd:string ;
        qb:dataSet                  ds:dataset-TAB5X01 ;
        crnd-attribute:denominator  "_ALL_" ;
        crnd-attribute:unit         "NA"^^xsd:string ;
        crnd-dimension:aedecod      code:aedecod-APPLICATION_SITE_BLEEDING ;
        crnd-dimension:aesoc        code:aesoc-GENERAL_DISORDERS_AND_ADMINISTRA ;
        crnd-dimension:factor       code:factor-quantify ;
        crnd-dimension:procedure    code:procedure-count ;
        crnd-dimension:saffl        code:saffl-Y ;
        crnd-dimension:trta         code:trta-Xanomeline_Low_Dose ;
        crnd-dimension:trtemfl      code:trtemfl-Y ;
        crnd-measure:measure        "1"^^xsd:double .

ds:obs317  a                        qb:Observation ;
        rdfs:comment                "Statistic for number of records/Statistics for factor with the dimensions XX"@en ;
        rdfs:label                  "317"^^xsd:string ;
        qb:dataSet                  ds:dataset-TAB5X01 ;
        crnd-attribute:denominator  "_ALL_" ;
        crnd-attribute:unit         "NA"^^xsd:string ;
        crnd-dimension:aedecod      code:aedecod-EXCORIATION ;
        crnd-dimension:aesoc        code:aesoc-INJURY__POISONING_AND_PROCEDURAL ;
        crnd-dimension:factor       code:factor-usubjid ;
        crnd-dimension:procedure    code:procedure-countdistinct ;
        crnd-dimension:saffl        code:saffl-Y ;
        crnd-dimension:trta         code:trta-Xanomeline_Low_Dose ;
        crnd-dimension:trtemfl      code:trtemfl-Y ;
        crnd-measure:measure        "1"^^xsd:double .

code:aedecod-DECREASED_APPETITE
        a                             code:Aedecod , skos:Concept ;
        rdfs:comment                  "Coded values from data source. No reconciliation against another source"@en ;
        rrdfqbcrnd0:R-selectionoperator
                "=="^^xsd:string ;
        rrdfqbcrnd0:R-selectionvalue  "DECREASED APPETITE"^^xsd:string ;
        skos:inScheme                 code:aedecod ;
        skos:prefLabel                "DECREASED APPETITE"^^xsd:string ;
        skos:topConceptOf             code:aedecod .

ds:obs363  a                        qb:Observation ;
        rdfs:comment                "Statistic for number of records/Statistics for factor with the dimensions XX"@en ;
        rdfs:label                  "363"^^xsd:string ;
        qb:dataSet                  ds:dataset-TAB5X01 ;
        crnd-attribute:denominator  "_ALL_" ;
        crnd-attribute:unit         "NA"^^xsd:string ;
        crnd-dimension:aedecod      code:aedecod-ELECTROCARDIOGRAM_T_WAVE_AMPLITU ;
        crnd-dimension:aesoc        code:aesoc-INVESTIGATIONS ;
        crnd-dimension:factor       code:factor-usubjid ;
        crnd-dimension:procedure    code:procedure-countdistinct ;
        crnd-dimension:saffl        code:saffl-Y ;
        crnd-dimension:trta         code:trta-Placebo ;
        crnd-dimension:trtemfl      code:trtemfl-Y ;
        crnd-measure:measure        "1"^^xsd:double .

ds:obs110  a                        qb:Observation ;
        rdfs:comment                "Statistic for number of records/Statistics for factor with the dimensions XX"@en ;
        rdfs:label                  "110"^^xsd:string ;
        qb:dataSet                  ds:dataset-TAB5X01 ;
        crnd-attribute:denominator  "_ALL_" ;
        crnd-attribute:unit         "NA"^^xsd:string ;
        crnd-dimension:aedecod      code:aedecod-DYSPEPSIA ;
        crnd-dimension:aesoc        code:aesoc-GASTROINTESTINAL_DISORDERS ;
        crnd-dimension:factor       code:factor-quantify ;
        crnd-dimension:procedure    code:procedure-count ;
        crnd-dimension:saffl        code:saffl-Y ;
        crnd-dimension:trta         code:trta-Xanomeline_Low_Dose ;
        crnd-dimension:trtemfl      code:trtemfl-Y ;
        crnd-measure:measure        "2"^^xsd:double .

ds:obs538  a                        qb:Observation ;
        rdfs:comment                "Statistic for number of records/Statistics for factor with the dimensions XX"@en ;
        rdfs:label                  "538"^^xsd:string ;
        qb:dataSet                  ds:dataset-TAB5X01 ;
        crnd-attribute:denominator  "_ALL_" ;
        crnd-attribute:unit         "NA"^^xsd:string ;
        crnd-dimension:aedecod      code:aedecod-LISTLESS ;
        crnd-dimension:aesoc        code:aesoc-PSYCHIATRIC_DISORDERS ;
        crnd-dimension:factor       code:factor-quantify ;
        crnd-dimension:procedure    code:procedure-count ;
        crnd-dimension:saffl        code:saffl-Y ;
        crnd-dimension:trta         code:trta-Xanomeline_High_Dose ;
        crnd-dimension:trtemfl      code:trtemfl-Y ;
        crnd-measure:measure        "1"^^xsd:double .

ds:obs584  a                        qb:Observation ;
        rdfs:comment                "Statistic for number of records/Statistics for factor with the dimensions XX"@en ;
        rdfs:label                  "584"^^xsd:string ;
        qb:dataSet                  ds:dataset-TAB5X01 ;
        crnd-attribute:denominator  "_ALL_" ;
        crnd-attribute:unit         "NA"^^xsd:string ;
        crnd-dimension:aedecod      code:aedecod-DYSPNOEA ;
        crnd-dimension:aesoc        code:aesoc-RESPIRATORY__THORACIC_AND_MEDIAS ;
        crnd-dimension:factor       code:factor-quantify ;
        crnd-dimension:procedure    code:procedure-count ;
        crnd-dimension:saffl        code:saffl-Y ;
        crnd-dimension:trta         code:trta-Xanomeline_Low_Dose ;
        crnd-dimension:trtemfl      code:trtemfl-Y ;
        crnd-measure:measure        "1"^^xsd:double .

ds:obs331  a                        qb:Observation ;
        rdfs:comment                "Statistic for number of records/Statistics for factor with the dimensions XX"@en ;
        rdfs:label                  "331"^^xsd:string ;
        qb:dataSet                  ds:dataset-TAB5X01 ;
        crnd-attribute:denominator  "_ALL_" ;
        crnd-attribute:unit         "NA"^^xsd:string ;
        crnd-dimension:aedecod      code:aedecod-JOINT_DISLOCATION ;
        crnd-dimension:aesoc        code:aesoc-INJURY__POISONING_AND_PROCEDURAL ;
        crnd-dimension:factor       code:factor-usubjid ;
        crnd-dimension:procedure    code:procedure-countdistinct ;
        crnd-dimension:saffl        code:saffl-Y ;
        crnd-dimension:trta         code:trta-Xanomeline_Low_Dose ;
        crnd-dimension:trtemfl      code:trtemfl-Y ;
        crnd-measure:measure        "1"^^xsd:double .

ds:obs759  a                        qb:Observation ;
        rdfs:comment                "Statistic for number of records/Statistics for factor with the dimensions XX"@en ;
        rdfs:label                  "759"^^xsd:string ;
        qb:dataSet                  ds:dataset-TAB5X01 ;
        crnd-attribute:denominator  "_ALL_" ;
        crnd-attribute:unit         "NA"^^xsd:string ;
        crnd-dimension:aedecod      code:aedecod-_ALL_ ;
        crnd-dimension:aesoc        code:aesoc-INJURY__POISONING_AND_PROCEDURAL ;
        crnd-dimension:factor       code:factor-usubjid ;
        crnd-dimension:procedure    code:procedure-countdistinct ;
        crnd-dimension:saffl        code:saffl-Y ;
        crnd-dimension:trta         code:trta-Placebo ;
        crnd-dimension:trtemfl      code:trtemfl-Y ;
        crnd-measure:measure        "4"^^xsd:double .

ds:obs506  a                        qb:Observation ;
        rdfs:comment                "Statistic for number of records/Statistics for factor with the dimensions XX"@en ;
        rdfs:label                  "506"^^xsd:string ;
        qb:dataSet                  ds:dataset-TAB5X01 ;
        crnd-attribute:denominator  "_ALL_" ;
        crnd-attribute:unit         "NA"^^xsd:string ;
        crnd-dimension:aedecod      code:aedecod-COMPLETED_SUICIDE ;
        crnd-dimension:aesoc        code:aesoc-PSYCHIATRIC_DISORDERS ;
        crnd-dimension:factor       code:factor-quantify ;
        crnd-dimension:procedure    code:procedure-count ;
        crnd-dimension:saffl        code:saffl-Y ;
        crnd-dimension:trta         code:trta-Placebo ;
        crnd-dimension:trtemfl      code:trtemfl-Y ;
        crnd-measure:measure        "1"^^xsd:double .

ds:obs086  a                        qb:Observation ;
        rdfs:comment                "Statistic for number of records/Statistics for factor with the dimensions XX"@en ;
        rdfs:label                  "86"^^xsd:string ;
        qb:dataSet                  ds:dataset-TAB5X01 ;
        crnd-attribute:denominator  "_ALL_" ;
        crnd-attribute:unit         "NA"^^xsd:string ;
        crnd-dimension:aedecod      code:aedecod-EYE_SWELLING ;
        crnd-dimension:aesoc        code:aesoc-EYE_DISORDERS ;
        crnd-dimension:factor       code:factor-quantify ;
        crnd-dimension:procedure    code:procedure-count ;
        crnd-dimension:saffl        code:saffl-Y ;
        crnd-dimension:trta         code:trta-Placebo ;
        crnd-dimension:trtemfl      code:trtemfl-Y ;
        crnd-measure:measure        "1"^^xsd:double .

code:aedecod-FEELING_COLD
        a                             code:Aedecod , skos:Concept ;
        rdfs:comment                  "Coded values from data source. No reconciliation against another source"@en ;
        rrdfqbcrnd0:R-selectionoperator
                "=="^^xsd:string ;
        rrdfqbcrnd0:R-selectionvalue  "FEELING COLD"^^xsd:string ;
        skos:inScheme                 code:aedecod ;
        skos:prefLabel                "FEELING COLD"^^xsd:string ;
        skos:topConceptOf             code:aedecod .

ds:obs552  a                        qb:Observation ;
        rdfs:comment                "Statistic for number of records/Statistics for factor with the dimensions XX"@en ;
        rdfs:label                  "552"^^xsd:string ;
        qb:dataSet                  ds:dataset-TAB5X01 ;
        crnd-attribute:denominator  "_ALL_" ;
        crnd-attribute:unit         "NA"^^xsd:string ;
        crnd-dimension:aedecod      code:aedecod-MICTURITION_URGENCY ;
        crnd-dimension:aesoc        code:aesoc-RENAL_AND_URINARY_DISORDERS ;
        crnd-dimension:factor       code:factor-quantify ;
        crnd-dimension:procedure    code:procedure-count ;
        crnd-dimension:saffl        code:saffl-Y ;
        crnd-dimension:trta         code:trta-Placebo ;
        crnd-dimension:trtemfl      code:trtemfl-Y ;
        crnd-measure:measure        "1"^^xsd:double .

ds:obs008  a                        qb:Observation ;
        rdfs:comment                "Statistic for number of records/Statistics for factor with the dimensions XX"@en ;
        rdfs:label                  "8"^^xsd:string ;
        qb:dataSet                  ds:dataset-TAB5X01 ;
        crnd-attribute:denominator  "_ALL_" ;
        crnd-attribute:unit         "NA"^^xsd:string ;
        crnd-dimension:aedecod      code:aedecod-ATRIAL_FLUTTER ;
        crnd-dimension:aesoc        code:aesoc-CARDIAC_DISORDERS ;
        crnd-dimension:factor       code:factor-quantify ;
        crnd-dimension:procedure    code:procedure-count ;
        crnd-dimension:saffl        code:saffl-Y ;
        crnd-dimension:trta         code:trta-Xanomeline_High_Dose ;
        crnd-dimension:trtemfl      code:trtemfl-Y ;
        crnd-measure:measure        "2"^^xsd:double .

code:aedecod-VAGINAL_MYCOSIS
        a                             code:Aedecod , skos:Concept ;
        rdfs:comment                  "Coded values from data source. No reconciliation against another source"@en ;
        rrdfqbcrnd0:R-selectionoperator
                "=="^^xsd:string ;
        rrdfqbcrnd0:R-selectionvalue  "VAGINAL MYCOSIS"^^xsd:string ;
        skos:inScheme                 code:aedecod ;
        skos:prefLabel                "VAGINAL MYCOSIS"^^xsd:string ;
        skos:topConceptOf             code:aedecod .

ds:obs727  a                        qb:Observation ;
        rdfs:comment                "Statistic for number of records/Statistics for factor with the dimensions XX"@en ;
        rdfs:label                  "727"^^xsd:string ;
        qb:dataSet                  ds:dataset-TAB5X01 ;
        crnd-attribute:denominator  "_ALL_" ;
        crnd-attribute:unit         "NA"^^xsd:string ;
        crnd-dimension:aedecod      code:aedecod-_ALL_ ;
        crnd-dimension:aesoc        code:aesoc-EAR_AND_LABYRINTH_DISORDERS ;
        crnd-dimension:factor       code:factor-usubjid ;
        crnd-dimension:procedure    code:procedure-countdistinct ;
        crnd-dimension:saffl        code:saffl-Y ;
        crnd-dimension:trta         code:trta-Xanomeline_High_Dose ;
        crnd-dimension:trtemfl      code:trtemfl-Y ;
        crnd-measure:measure        "1"^^xsd:double .

code:aedecod-VENTRICULAR_EXTRASYSTOLES
        a                             code:Aedecod , skos:Concept ;
        rdfs:comment                  "Coded values from data source. No reconciliation against another source"@en ;
        rrdfqbcrnd0:R-selectionoperator
                "=="^^xsd:string ;
        rrdfqbcrnd0:R-selectionvalue  "VENTRICULAR EXTRASYSTOLES"^^xsd:string ;
        skos:inScheme                 code:aedecod ;
        skos:prefLabel                "VENTRICULAR EXTRASYSTOLES"^^xsd:string ;
        skos:topConceptOf             code:aedecod .

ds:obs054  a                        qb:Observation ;
        rdfs:comment                "Statistic for number of records/Statistics for factor with the dimensions XX"@en ;
        rdfs:label                  "54"^^xsd:string ;
        qb:dataSet                  ds:dataset-TAB5X01 ;
        crnd-attribute:denominator  "_ALL_" ;
        crnd-attribute:unit         "NA"^^xsd:string ;
        crnd-dimension:aedecod      code:aedecod-SUPRAVENTRICULAR_TACHYCARDIA ;
        crnd-dimension:aesoc        code:aesoc-CARDIAC_DISORDERS ;
        crnd-dimension:factor       code:factor-quantify ;
        crnd-dimension:procedure    code:procedure-count ;
        crnd-dimension:saffl        code:saffl-Y ;
        crnd-dimension:trta         code:trta-Xanomeline_Low_Dose ;
        crnd-dimension:trtemfl      code:trtemfl-Y ;
        crnd-measure:measure        "2"^^xsd:double .

ds:obs773  a                        qb:Observation ;
        rdfs:comment                "Statistic for number of records/Statistics for factor with the dimensions XX"@en ;
        rdfs:label                  "773"^^xsd:string ;
        qb:dataSet                  ds:dataset-TAB5X01 ;
        crnd-attribute:denominator  "_ALL_" ;
        crnd-attribute:unit         "NA"^^xsd:string ;
        crnd-dimension:aedecod      code:aedecod-_ALL_ ;
        crnd-dimension:aesoc        code:aesoc-METABOLISM_AND_NUTRITION_DISORDE ;
        crnd-dimension:factor       code:factor-usubjid ;
        crnd-dimension:procedure    code:procedure-countdistinct ;
        crnd-dimension:saffl        code:saffl-Y ;
        crnd-dimension:trta         code:trta-Xanomeline_High_Dose ;
        crnd-dimension:trtemfl      code:trtemfl-Y ;
        crnd-measure:measure        "2"^^xsd:double .

ds:obs229  a                        qb:Observation ;
        rdfs:comment                "Statistic for number of records/Statistics for factor with the dimensions XX"@en ;
        rdfs:label                  "229"^^xsd:string ;
        qb:dataSet                  ds:dataset-TAB5X01 ;
        crnd-attribute:denominator  "_ALL_" ;
        crnd-attribute:unit         "NA"^^xsd:string ;
        crnd-dimension:aedecod      code:aedecod-OEDEMA ;
        crnd-dimension:aesoc        code:aesoc-GENERAL_DISORDERS_AND_ADMINISTRA ;
        crnd-dimension:factor       code:factor-usubjid ;
        crnd-dimension:procedure    code:procedure-countdistinct ;
        crnd-dimension:saffl        code:saffl-Y ;
        crnd-dimension:trta         code:trta-Xanomeline_Low_Dose ;
        crnd-dimension:trtemfl      code:trtemfl-Y ;
        crnd-measure:measure        "2"^^xsd:double .

code:aedecod-_NONMISS_
        a                  code:Aedecod , skos:Concept ;
        rdfs:comment       "NON-CDISC: Represents the non-missing codelist categories. Does not include missing values."@en ;
        rrdfqbcrnd0:R-selectionfunction
                "is.na"^^xsd:string ;
