saffl,trtemfl,aesoc,aedecod,trta,procedure,factor,denominator,measure,unit
Y,Y,CARDIAC DISORDERS,ATRIAL FIBRILLATION,Placebo,countdistinct,usubjid,_ALL_,1,
Y,Y,CARDIAC DISORDERS,ATRIAL FIBRILLATION,Placebo,count,quantify,_ALL_,1,
Y,Y,CARDIAC DISORDERS,ATRIAL FIBRILLATION,Xanomeline High Dose,countdistinct,usubjid,_ALL_,3,
Y,Y,CARDIAC DISORDERS,ATRIAL FIBRILLATION,Xanomeline High Dose,count,quantify,_ALL_,5,
Y,Y,CARDIAC DISORDERS,ATRIAL FIBRILLATION,Xanomeline Low Dose,countdistinct,usubjid,_ALL_,1,
Y,Y,CARDIAC DISORDERS,ATRIAL FIBRILLATION,Xanomeline Low Dose,count,quantify,_ALL_,1,
Y,Y,CARDIAC DISORDERS,ATRIAL FLUTTER,Xanomeline High Dose,countdistinct,usubjid,_ALL_,1,
Y,Y,CARDIAC DISORDERS,ATRIAL FLUTTER,Xanomeline High Dose,count,quantify,_ALL_,2,
Y,Y,CARDIAC DISORDERS,ATRIAL FLUTTER,Xanomeline Low Dose,countdistinct,usubjid,_ALL_,1,
Y,Y,CARDIAC DISORDERS,ATRIAL FLUTTER,Xanomeline Low Dose,count,quantify,_ALL_,1,
Y,Y,CARDIAC DISORDERS,ATRIAL HYPERTROPHY,Placebo,countdistinct,usubjid,_ALL_,1,
Y,Y,CARDIAC DISORDERS,ATRIAL HYPERTROPHY,Placebo,count,quantify,_ALL_,2,
Y,Y,CARDIAC DISORDERS,ATRIOVENTRICULAR BLOCK FIRST DEG,Placebo,countdistinct,usubjid,_ALL_,1,
Y,Y,CARDIAC DISORDERS,ATRIOVENTRICULAR BLOCK FIRST DEG,Placebo,count,quantify,_ALL_,1,
Y,Y,CARDIAC DISORDERS,ATRIOVENTRICULAR BLOCK FIRST DEG,Xanomeline Low Dose,countdistinct,usubjid,_ALL_,1,
Y,Y,CARDIAC DISORDERS,ATRIOVENTRICULAR BLOCK FIRST DEG,Xanomeline Low Dose,count,quantify,_ALL_,1,
Y,Y,CARDIAC DISORDERS,ATRIOVENTRICULAR BLOCK SECOND DE,Placebo,countdistinct,usubjid,_ALL_,1,
Y,Y,CARDIAC DISORDERS,ATRIOVENTRICULAR BLOCK SECOND DE,Placebo,count,quantify,_ALL_,1,
Y,Y,CARDIAC DISORDERS,BRADYCARDIA,Placebo,countdistinct,usubjid,_ALL_,1,
Y,Y,CARDIAC DISORDERS,BRADYCARDIA,Placebo,count,quantify,_ALL_,4,
Y,Y,CARDIAC DISORDERS,BUNDLE BRANCH BLOCK LEFT,Placebo,countdistinct,usubjid,_ALL_,1,
Y,Y,CARDIAC DISORDERS,BUNDLE BRANCH BLOCK LEFT,Placebo,count,quantify,_ALL_,1,
Y,Y,CARDIAC DISORDERS,BUNDLE BRANCH BLOCK RIGHT,Placebo,countdistinct,usubjid,_ALL_,1,
Y,Y,CARDIAC DISORDERS,BUNDLE BRANCH BLOCK RIGHT,Placebo,count,quantify,_ALL_,2,
Y,Y,CARDIAC DISORDERS,BUNDLE BRANCH BLOCK RIGHT,Xanomeline Low Dose,countdistinct,usubjid,_ALL_,1,
Y,Y,CARDIAC DISORDERS,BUNDLE BRANCH BLOCK RIGHT,Xanomeline Low Dose,count,quantify,_ALL_,1,
Y,Y,CARDIAC DISORDERS,CARDIAC DISORDER,Xanomeline High Dose,countdistinct,usubjid,_ALL_,1,
Y,Y,CARDIAC DISORDERS,CARDIAC DISORDER,Xanomeline High Dose,count,quantify,_ALL_,1,
Y,Y,CARDIAC DISORDERS,CARDIAC FAILURE CONGESTIVE,Placebo,countdistinct,usubjid,_ALL_,1,
Y,Y,CARDIAC DISORDERS,CARDIAC FAILURE CONGESTIVE,Placebo,count,quantify,_ALL_,1,
Y,Y,CARDIAC DISORDERS,MYOCARDIAL INFARCTION,Placebo,countdistinct,usubjid,_ALL_,4,
Y,Y,CARDIAC DISORDERS,MYOCARDIAL INFARCTION,Placebo,count,quantify,_ALL_,4,
Y,Y,CARDIAC DISORDERS,MYOCARDIAL INFARCTION,Xanomeline High Dose,countdistinct,usubjid,_ALL_,4,
Y,Y,CARDIAC DISORDERS,MYOCARDIAL INFARCTION,Xanomeline High Dose,count,quantify,_ALL_,8,
Y,Y,CARDIAC DISORDERS,MYOCARDIAL INFARCTION,Xanomeline Low Dose,countdistinct,usubjid,_ALL_,2,
Y,Y,CARDIAC DISORDERS,MYOCARDIAL INFARCTION,Xanomeline Low Dose,count,quantify,_ALL_,4,
Y,Y,CARDIAC DISORDERS,PALPITATIONS,Xanomeline Low Dose,countdistinct,usubjid,_ALL_,2,
Y,Y,CARDIAC DISORDERS,PALPITATIONS,Xanomeline Low Dose,count,quantify,_ALL_,2,
Y,Y,CARDIAC DISORDERS,SINUS ARRHYTHMIA,Placebo,countdistinct,usubjid,_ALL_,1,
Y,Y,CARDIAC DISORDERS,SINUS ARRHYTHMIA,Placebo,count,quantify,_ALL_,2,
Y,Y,CARDIAC DISORDERS,SINUS BRADYCARDIA,Placebo,countdistinct,usubjid,_ALL_,2,
Y,Y,CARDIAC DISORDERS,SINUS BRADYCARDIA,Placebo,count,quantify,_ALL_,2,
Y,Y,CARDIAC DISORDERS,SINUS BRADYCARDIA,Xanomeline High Dose,countdistinct,usubjid,_ALL_,8,
Y,Y,CARDIAC DISORDERS,SINUS BRADYCARDIA,Xanomeline High Dose,count,quantify,_ALL_,12,
Y,Y,CARDIAC DISORDERS,SINUS BRADYCARDIA,Xanomeline Low Dose,countdistinct,usubjid,_ALL_,7,
Y,Y,CARDIAC DISORDERS,SINUS BRADYCARDIA,Xanomeline Low Dose,count,quantify,_ALL_,10,
Y,Y,CARDIAC DISORDERS,SUPRAVENTRICULAR EXTRASYSTOLES,Placebo,countdistinct,usubjid,_ALL_,1,
Y,Y,CARDIAC DISORDERS,SUPRAVENTRICULAR EXTRASYSTOLES,Placebo,count,quantify,_ALL_,2,
Y,Y,CARDIAC DISORDERS,SUPRAVENTRICULAR EXTRASYSTOLES,Xanomeline High Dose,countdistinct,usubjid,_ALL_,1,
Y,Y,CARDIAC DISORDERS,SUPRAVENTRICULAR EXTRASYSTOLES,Xanomeline High Dose,count,quantify,_ALL_,1,
Y,Y,CARDIAC DISORDERS,SUPRAVENTRICULAR EXTRASYSTOLES,Xanomeline Low Dose,countdistinct,usubjid,_ALL_,1,
Y,Y,CARDIAC DISORDERS,SUPRAVENTRICULAR EXTRASYSTOLES,Xanomeline Low Dose,count,quantify,_ALL_,2,
Y,Y,CARDIAC DISORDERS,SUPRAVENTRICULAR TACHYCARDIA,Xanomeline Low Dose,countdistinct,usubjid,_ALL_,1,
Y,Y,CARDIAC DISORDERS,SUPRAVENTRICULAR TACHYCARDIA,Xanomeline Low Dose,count,quantify,_ALL_,2,
Y,Y,CARDIAC DISORDERS,TACHYCARDIA,Placebo,countdistinct,usubjid,_ALL_,1,
Y,Y,CARDIAC DISORDERS,TACHYCARDIA,Placebo,count,quantify,_ALL_,2,
Y,Y,CARDIAC DISORDERS,VENTRICULAR EXTRASYSTOLES,Xanomeline High Dose,countdistinct,usubjid,_ALL_,1,
Y,Y,CARDIAC DISORDERS,VENTRICULAR EXTRASYSTOLES,Xanomeline High Dose,count,quantify,_ALL_,1,
Y,Y,CARDIAC DISORDERS,VENTRICULAR EXTRASYSTOLES,Xanomeline Low Dose,countdistinct,usubjid,_ALL_,2,
Y,Y,CARDIAC DISORDERS,VENTRICULAR EXTRASYSTOLES,Xanomeline Low Dose,count,quantify,_ALL_,4,
Y,Y,CARDIAC DISORDERS,VENTRICULAR HYPERTROPHY,Placebo,countdistinct,usubjid,_ALL_,1,
Y,Y,CARDIAC DISORDERS,VENTRICULAR HYPERTROPHY,Placebo,count,quantify,_ALL_,1,
Y,Y,CARDIAC DISORDERS,WOLFF-PARKINSON-WHITE SYNDROME,Xanomeline Low Dose,countdistinct,usubjid,_ALL_,1,
Y,Y,CARDIAC DISORDERS,WOLFF-PARKINSON-WHITE SYNDROME,Xanomeline Low Dose,count,quantify,_ALL_,2,
Y,Y,"CONGENITAL, FAMILIAL AND GENETIC",VENTRICULAR SEPTAL DEFECT,Xanomeline High Dose,countdistinct,usubjid,_ALL_,2,
Y,Y,"CONGENITAL, FAMILIAL AND GENETIC",VENTRICULAR SEPTAL DEFECT,Xanomeline High Dose,count,quantify,_ALL_,2,
Y,Y,"CONGENITAL, FAMILIAL AND GENETIC",VENTRICULAR SEPTAL DEFECT,Xanomeline Low Dose,countdistinct,usubjid,_ALL_,1,
Y,Y,"CONGENITAL, FAMILIAL AND GENETIC",VENTRICULAR SEPTAL DEFECT,Xanomeline Low Dose,count,quantify,_ALL_,1,
Y,Y,EAR AND LABYRINTH DISORDERS,CERUMEN IMPACTION,Xanomeline Low Dose,countdistinct,usubjid,_ALL_,1,
Y,Y,EAR AND LABYRINTH DISORDERS,CERUMEN IMPACTION,Xanomeline Low Dose,count,quantify,_ALL_,1,
Y,Y,EAR AND LABYRINTH DISORDERS,EAR PAIN,Placebo,countdistinct,usubjid,_ALL_,1,
Y,Y,EAR AND LABYRINTH DISORDERS,EAR PAIN,Placebo,count,quantify,_ALL_,2,
Y,Y,EAR AND LABYRINTH DISORDERS,VERTIGO,Xanomeline High Dose,countdistinct,usubjid,_ALL_,1,
Y,Y,EAR AND LABYRINTH DISORDERS,VERTIGO,Xanomeline High Dose,count,quantify,_ALL_,1,
Y,Y,EAR AND LABYRINTH DISORDERS,VERTIGO,Xanomeline Low Dose,countdistinct,usubjid,_ALL_,1,
Y,Y,EAR AND LABYRINTH DISORDERS,VERTIGO,Xanomeline Low Dose,count,quantify,_ALL_,1,
Y,Y,EYE DISORDERS,CONJUNCTIVAL HAEMORRHAGE,Xanomeline Low Dose,countdistinct,usubjid,_ALL_,1,
Y,Y,EYE DISORDERS,CONJUNCTIVAL HAEMORRHAGE,Xanomeline Low Dose,count,quantify,_ALL_,1,
Y,Y,EYE DISORDERS,CONJUNCTIVITIS,Placebo,countdistinct,usubjid,_ALL_,1,
Y,Y,EYE DISORDERS,CONJUNCTIVITIS,Placebo,count,quantify,_ALL_,2,
Y,Y,EYE DISORDERS,EYE ALLERGY,Placebo,countdistinct,usubjid,_ALL_,1,
Y,Y,EYE DISORDERS,EYE ALLERGY,Placebo,count,quantify,_ALL_,1,
Y,Y,EYE DISORDERS,EYE PRURITUS,Placebo,countdistinct,usubjid,_ALL_,1,
Y,Y,EYE DISORDERS,EYE PRURITUS,Placebo,count,quantify,_ALL_,1,
Y,Y,EYE DISORDERS,EYE SWELLING,Placebo,countdistinct,usubjid,_ALL_,1,
Y,Y,EYE DISORDERS,EYE SWELLING,Placebo,count,quantify,_ALL_,1,
Y,Y,EYE DISORDERS,VISION BLURRED,Xanomeline High Dose,countdistinct,usubjid,_ALL_,1,
Y,Y,EYE DISORDERS,VISION BLURRED,Xanomeline High Dose,count,quantify,_ALL_,2,
Y,Y,EYE DISORDERS,VISION BLURRED,Xanomeline Low Dose,countdistinct,usubjid,_ALL_,1,
Y,Y,EYE DISORDERS,VISION BLURRED,Xanomeline Low Dose,count,quantify,_ALL_,1,
Y,Y,GASTROINTESTINAL DISORDERS,ABDOMINAL DISCOMFORT,Xanomeline High Dose,countdistinct,usubjid,_ALL_,1,
Y,Y,GASTROINTESTINAL DISORDERS,ABDOMINAL DISCOMFORT,Xanomeline High Dose,count,quantify,_ALL_,1,
Y,Y,GASTROINTESTINAL DISORDERS,ABDOMINAL PAIN,Placebo,countdistinct,usubjid,_ALL_,1,
Y,Y,GASTROINTESTINAL DISORDERS,ABDOMINAL PAIN,Placebo,count,quantify,_ALL_,1,
Y,Y,GASTROINTESTINAL DISORDERS,ABDOMINAL PAIN,Xanomeline High Dose,countdistinct,usubjid,_ALL_,1,
Y,Y,GASTROINTESTINAL DISORDERS,ABDOMINAL PAIN,Xanomeline High Dose,count,quantify,_ALL_,2,
Y,Y,GASTROINTESTINAL DISORDERS,ABDOMINAL PAIN,Xanomeline Low Dose,countdistinct,usubjid,_ALL_,3,
Y,Y,GASTROINTESTINAL DISORDERS,ABDOMINAL PAIN,Xanomeline Low Dose,count,quantify,_ALL_,3,
Y,Y,GASTROINTESTINAL DISORDERS,CONSTIPATION,Placebo,countdistinct,usubjid,_ALL_,1,
Y,Y,GASTROINTESTINAL DISORDERS,CONSTIPATION,Placebo,count,quantify,_ALL_,1,
Y,Y,GASTROINTESTINAL DISORDERS,DIARRHOEA,Placebo,countdistinct,usubjid,_ALL_,9,
Y,Y,GASTROINTESTINAL DISORDERS,DIARRHOEA,Placebo,count,quantify,_ALL_,10,
Y,Y,GASTROINTESTINAL DISORDERS,DIARRHOEA,Xanomeline High Dose,countdistinct,usubjid,_ALL_,4,
Y,Y,GASTROINTESTINAL DISORDERS,DIARRHOEA,Xanomeline High Dose,count,quantify,_ALL_,4,
Y,Y,GASTROINTESTINAL DISORDERS,DIARRHOEA,Xanomeline Low Dose,countdistinct,usubjid,_ALL_,4,
Y,Y,GASTROINTESTINAL DISORDERS,DIARRHOEA,Xanomeline Low Dose,count,quantify,_ALL_,5,
Y,Y,GASTROINTESTINAL DISORDERS,DYSPEPSIA,Placebo,countdistinct,usubjid,_ALL_,1,
Y,Y,GASTROINTESTINAL DISORDERS,DYSPEPSIA,Placebo,count,quantify,_ALL_,2,
Y,Y,GASTROINTESTINAL DISORDERS,DYSPEPSIA,Xanomeline Low Dose,countdistinct,usubjid,_ALL_,1,
Y,Y,GASTROINTESTINAL DISORDERS,DYSPEPSIA,Xanomeline Low Dose,count,quantify,_ALL_,2,
Y,Y,GASTROINTESTINAL DISORDERS,DYSPHAGIA,Xanomeline Low Dose,countdistinct,usubjid,_ALL_,1,
Y,Y,GASTROINTESTINAL DISORDERS,DYSPHAGIA,Xanomeline Low Dose,count,quantify,_ALL_,1,
Y,Y,GASTROINTESTINAL DISORDERS,FLATULENCE,Placebo,countdistinct,usubjid,_ALL_,1,
Y,Y,GASTROINTESTINAL DISORDERS,FLATULENCE,Placebo,count,quantify,_ALL_,2,
Y,Y,GASTROINTESTINAL DISORDERS,GASTROINTESTINAL HAEMORRHAGE,Xanomeline High Dose,countdistinct,usubjid,_ALL_,1,
Y,Y,GASTROINTESTINAL DISORDERS,GASTROINTESTINAL HAEMORRHAGE,Xanomeline High Dose,count,quantify,_ALL_,1,
Y,Y,GASTROINTESTINAL DISORDERS,GASTROOESOPHAGEAL REFLUX DISEASE,Placebo,countdistinct,usubjid,_ALL_,1,
Y,Y,GASTROINTESTINAL DISORDERS,GASTROOESOPHAGEAL REFLUX DISEASE,Placebo,count,quantify,_ALL_,1,
Y,Y,GASTROINTESTINAL DISORDERS,GLOSSITIS,Placebo,countdistinct,usubjid,_ALL_,1,
Y,Y,GASTROINTESTINAL DISORDERS,GLOSSITIS,Placebo,count,quantify,_ALL_,1,
Y,Y,GASTROINTESTINAL DISORDERS,HIATUS HERNIA,Placebo,countdistinct,usubjid,_ALL_,1,
Y,Y,GASTROINTESTINAL DISORDERS,HIATUS HERNIA,Placebo,count,quantify,_ALL_,2,
Y,Y,GASTROINTESTINAL DISORDERS,NAUSEA,Placebo,countdistinct,usubjid,_ALL_,3,
Y,Y,GASTROINTESTINAL DISORDERS,NAUSEA,Placebo,count,quantify,_ALL_,3,
Y,Y,GASTROINTESTINAL DISORDERS,NAUSEA,Xanomeline High Dose,countdistinct,usubjid,_ALL_,6,
Y,Y,GASTROINTESTINAL DISORDERS,NAUSEA,Xanomeline High Dose,count,quantify,_ALL_,13,
Y,Y,GASTROINTESTINAL DISORDERS,NAUSEA,Xanomeline Low Dose,countdistinct,usubjid,_ALL_,3,
Y,Y,GASTROINTESTINAL DISORDERS,NAUSEA,Xanomeline Low Dose,count,quantify,_ALL_,5,
Y,Y,GASTROINTESTINAL DISORDERS,RECTAL HAEMORRHAGE,Xanomeline Low Dose,countdistinct,usubjid,_ALL_,1,
Y,Y,GASTROINTESTINAL DISORDERS,RECTAL HAEMORRHAGE,Xanomeline Low Dose,count,quantify,_ALL_,2,
Y,Y,GASTROINTESTINAL DISORDERS,SALIVARY HYPERSECRETION,Xanomeline High Dose,countdistinct,usubjid,_ALL_,4,
Y,Y,GASTROINTESTINAL DISORDERS,SALIVARY HYPERSECRETION,Xanomeline High Dose,count,quantify,_ALL_,5,
Y,Y,GASTROINTESTINAL DISORDERS,STOMACH DISCOMFORT,Xanomeline High Dose,countdistinct,usubjid,_ALL_,1,
Y,Y,GASTROINTESTINAL DISORDERS,STOMACH DISCOMFORT,Xanomeline High Dose,count,quantify,_ALL_,1,
Y,Y,GASTROINTESTINAL DISORDERS,VOMITING,Placebo,countdistinct,usubjid,_ALL_,3,
Y,Y,GASTROINTESTINAL DISORDERS,VOMITING,Placebo,count,quantify,_ALL_,3,
Y,Y,GASTROINTESTINAL DISORDERS,VOMITING,Xanomeline High Dose,countdistinct,usubjid,_ALL_,7,
Y,Y,GASTROINTESTINAL DISORDERS,VOMITING,Xanomeline High Dose,count,quantify,_ALL_,9,
Y,Y,GASTROINTESTINAL DISORDERS,VOMITING,Xanomeline Low Dose,countdistinct,usubjid,_ALL_,3,
Y,Y,GASTROINTESTINAL DISORDERS,VOMITING,Xanomeline Low Dose,count,quantify,_ALL_,4,
Y,Y,GENERAL DISORDERS AND ADMINISTRA,APPLICATION SITE BLEEDING,Xanomeline Low Dose,countdistinct,usubjid,_ALL_,1,
Y,Y,GENERAL DISORDERS AND ADMINISTRA,APPLICATION SITE BLEEDING,Xanomeline Low Dose,count,quantify,_ALL_,1,
Y,Y,GENERAL DISORDERS AND ADMINISTRA,APPLICATION SITE DERMATITIS,Placebo,countdistinct,usubjid,_ALL_,5,
Y,Y,GENERAL DISORDERS AND ADMINISTRA,APPLICATION SITE DERMATITIS,Placebo,count,quantify,_ALL_,9,
Y,Y,GENERAL DISORDERS AND ADMINISTRA,APPLICATION SITE DERMATITIS,Xanomeline High Dose,countdistinct,usubjid,_ALL_,7,
Y,Y,GENERAL DISORDERS AND ADMINISTRA,APPLICATION SITE DERMATITIS,Xanomeline High Dose,count,quantify,_ALL_,12,
Y,Y,GENERAL DISORDERS AND ADMINISTRA,APPLICATION SITE DERMATITIS,Xanomeline Low Dose,countdistinct,usubjid,_ALL_,9,
Y,Y,GENERAL DISORDERS AND ADMINISTRA,APPLICATION SITE DERMATITIS,Xanomeline Low Dose,count,quantify,_ALL_,15,
Y,Y,GENERAL DISORDERS AND ADMINISTRA,APPLICATION SITE DESQUAMATION,Xanomeline Low Dose,countdistinct,usubjid,_ALL_,1,
Y,Y,GENERAL DISORDERS AND ADMINISTRA,APPLICATION SITE DESQUAMATION,Xanomeline Low Dose,count,quantify,_ALL_,1,
Y,Y,GENERAL DISORDERS AND ADMINISTRA,APPLICATION SITE DISCHARGE,Xanomeline High Dose,countdistinct,usubjid,_ALL_,1,
Y,Y,GENERAL DISORDERS AND ADMINISTRA,APPLICATION SITE DISCHARGE,Xanomeline High Dose,count,quantify,_ALL_,1,
Y,Y,GENERAL DISORDERS AND ADMINISTRA,APPLICATION SITE DISCOLOURATION,Xanomeline Low Dose,countdistinct,usubjid,_ALL_,1,
Y,Y,GENERAL DISORDERS AND ADMINISTRA,APPLICATION SITE DISCOLOURATION,Xanomeline Low Dose,count,quantify,_ALL_,1,
Y,Y,GENERAL DISORDERS AND ADMINISTRA,APPLICATION SITE ERYTHEMA,Placebo,countdistinct,usubjid,_ALL_,3,
Y,Y,GENERAL DISORDERS AND ADMINISTRA,APPLICATION SITE ERYTHEMA,Placebo,count,quantify,_ALL_,3,
Y,Y,GENERAL DISORDERS AND ADMINISTRA,APPLICATION SITE ERYTHEMA,Xanomeline High Dose,countdistinct,usubjid,_ALL_,15,
Y,Y,GENERAL DISORDERS AND ADMINISTRA,APPLICATION SITE ERYTHEMA,Xanomeline High Dose,count,quantify,_ALL_,23,
Y,Y,GENERAL DISORDERS AND ADMINISTRA,APPLICATION SITE ERYTHEMA,Xanomeline Low Dose,countdistinct,usubjid,_ALL_,12,
Y,Y,GENERAL DISORDERS AND ADMINISTRA,APPLICATION SITE ERYTHEMA,Xanomeline Low Dose,count,quantify,_ALL_,20,
Y,Y,GENERAL DISORDERS AND ADMINISTRA,APPLICATION SITE INDURATION,Placebo,countdistinct,usubjid,_ALL_,1,
Y,Y,GENERAL DISORDERS AND ADMINISTRA,APPLICATION SITE INDURATION,Placebo,count,quantify,_ALL_,1,
Y,Y,GENERAL DISORDERS AND ADMINISTRA,APPLICATION SITE IRRITATION,Placebo,countdistinct,usubjid,_ALL_,3,
Y,Y,GENERAL DISORDERS AND ADMINISTRA,APPLICATION SITE IRRITATION,Placebo,count,quantify,_ALL_,7,
Y,Y,GENERAL DISORDERS AND ADMINISTRA,APPLICATION SITE IRRITATION,Xanomeline High Dose,countdistinct,usubjid,_ALL_,9,
Y,Y,GENERAL DISORDERS AND ADMINISTRA,APPLICATION SITE IRRITATION,Xanomeline High Dose,count,quantify,_ALL_,16,
Y,Y,GENERAL DISORDERS AND ADMINISTRA,APPLICATION SITE IRRITATION,Xanomeline Low Dose,countdistinct,usubjid,_ALL_,9,
Y,Y,GENERAL DISORDERS AND ADMINISTRA,APPLICATION SITE IRRITATION,Xanomeline Low Dose,count,quantify,_ALL_,18,
Y,Y,GENERAL DISORDERS AND ADMINISTRA,APPLICATION SITE PAIN,Xanomeline High Dose,countdistinct,usubjid,_ALL_,2,
Y,Y,GENERAL DISORDERS AND ADMINISTRA,APPLICATION SITE PAIN,Xanomeline High Dose,count,quantify,_ALL_,2,
Y,Y,GENERAL DISORDERS AND ADMINISTRA,APPLICATION SITE PERSPIRATION,Xanomeline High Dose,countdistinct,usubjid,_ALL_,2,
Y,Y,GENERAL DISORDERS AND ADMINISTRA,APPLICATION SITE PERSPIRATION,Xanomeline High Dose,count,quantify,_ALL_,3,
Y,Y,GENERAL DISORDERS AND ADMINISTRA,APPLICATION SITE PRURITUS,Placebo,countdistinct,usubjid,_ALL_,6,
Y,Y,GENERAL DISORDERS AND ADMINISTRA,APPLICATION SITE PRURITUS,Placebo,count,quantify,_ALL_,10,
Y,Y,GENERAL DISORDERS AND ADMINISTRA,APPLICATION SITE PRURITUS,Xanomeline High Dose,countdistinct,usubjid,_ALL_,22,
Y,Y,GENERAL DISORDERS AND ADMINISTRA,APPLICATION SITE PRURITUS,Xanomeline High Dose,count,quantify,_ALL_,35,
Y,Y,GENERAL DISORDERS AND ADMINISTRA,APPLICATION SITE PRURITUS,Xanomeline Low Dose,countdistinct,usubjid,_ALL_,22,
Y,Y,GENERAL DISORDERS AND ADMINISTRA,APPLICATION SITE PRURITUS,Xanomeline Low Dose,count,quantify,_ALL_,32,
Y,Y,GENERAL DISORDERS AND ADMINISTRA,APPLICATION SITE REACTION,Placebo,countdistinct,usubjid,_ALL_,1,
Y,Y,GENERAL DISORDERS AND ADMINISTRA,APPLICATION SITE REACTION,Placebo,count,quantify,_ALL_,2,
Y,Y,GENERAL DISORDERS AND ADMINISTRA,APPLICATION SITE REACTION,Xanomeline High Dose,countdistinct,usubjid,_ALL_,1,
Y,Y,GENERAL DISORDERS AND ADMINISTRA,APPLICATION SITE REACTION,Xanomeline High Dose,count,quantify,_ALL_,1,
Y,Y,GENERAL DISORDERS AND ADMINISTRA,APPLICATION SITE SWELLING,Xanomeline High Dose,countdistinct,usubjid,_ALL_,2,
Y,Y,GENERAL DISORDERS AND ADMINISTRA,APPLICATION SITE SWELLING,Xanomeline High Dose,count,quantify,_ALL_,3,
Y,Y,GENERAL DISORDERS AND ADMINISTRA,APPLICATION SITE SWELLING,Xanomeline Low Dose,countdistinct,usubjid,_ALL_,1,
Y,Y,GENERAL DISORDERS AND ADMINISTRA,APPLICATION SITE SWELLING,Xanomeline Low Dose,count,quantify,_ALL_,1,
Y,Y,GENERAL DISORDERS AND ADMINISTRA,APPLICATION SITE URTICARIA,Xanomeline High Dose,countdistinct,usubjid,_ALL_,1,
Y,Y,GENERAL DISORDERS AND ADMINISTRA,APPLICATION SITE URTICARIA,Xanomeline High Dose,count,quantify,_ALL_,1,
Y,Y,GENERAL DISORDERS AND ADMINISTRA,APPLICATION SITE URTICARIA,Xanomeline Low Dose,countdistinct,usubjid,_ALL_,2,
Y,Y,GENERAL DISORDERS AND ADMINISTRA,APPLICATION SITE URTICARIA,Xanomeline Low Dose,count,quantify,_ALL_,2,
Y,Y,GENERAL DISORDERS AND ADMINISTRA,APPLICATION SITE VESICLES,Placebo,countdistinct,usubjid,_ALL_,1,
Y,Y,GENERAL DISORDERS AND ADMINISTRA,APPLICATION SITE VESICLES,Placebo,count,quantify,_ALL_,2,
Y,Y,GENERAL DISORDERS AND ADMINISTRA,APPLICATION SITE VESICLES,Xanomeline High Dose,countdistinct,usubjid,_ALL_,6,
Y,Y,GENERAL DISORDERS AND ADMINISTRA,APPLICATION SITE VESICLES,Xanomeline High Dose,count,quantify,_ALL_,6,
Y,Y,GENERAL DISORDERS AND ADMINISTRA,APPLICATION SITE VESICLES,Xanomeline Low Dose,countdistinct,usubjid,_ALL_,4,
Y,Y,GENERAL DISORDERS AND ADMINISTRA,APPLICATION SITE VESICLES,Xanomeline Low Dose,count,quantify,_ALL_,5,
Y,Y,GENERAL DISORDERS AND ADMINISTRA,APPLICATION SITE WARMTH,Xanomeline Low Dose,countdistinct,usubjid,_ALL_,1,
Y,Y,GENERAL DISORDERS AND ADMINISTRA,APPLICATION SITE WARMTH,Xanomeline Low Dose,count,quantify,_ALL_,2,
Y,Y,GENERAL DISORDERS AND ADMINISTRA,ASTHENIA,Placebo,countdistinct,usubjid,_ALL_,1,
Y,Y,GENERAL DISORDERS AND ADMINISTRA,ASTHENIA,Placebo,count,quantify,_ALL_,2,
Y,Y,GENERAL DISORDERS AND ADMINISTRA,ASTHENIA,Xanomeline High Dose,countdistinct,usubjid,_ALL_,1,
Y,Y,GENERAL DISORDERS AND ADMINISTRA,ASTHENIA,Xanomeline High Dose,count,quantify,_ALL_,1,
Y,Y,GENERAL DISORDERS AND ADMINISTRA,CHEST DISCOMFORT,Xanomeline High Dose,countdistinct,usubjid,_ALL_,2,
Y,Y,GENERAL DISORDERS AND ADMINISTRA,CHEST DISCOMFORT,Xanomeline High Dose,count,quantify,_ALL_,2,
Y,Y,GENERAL DISORDERS AND ADMINISTRA,CHEST PAIN,Xanomeline High Dose,countdistinct,usubjid,_ALL_,2,
Y,Y,GENERAL DISORDERS AND ADMINISTRA,CHEST PAIN,Xanomeline High Dose,count,quantify,_ALL_,2,
Y,Y,GENERAL DISORDERS AND ADMINISTRA,CHILLS,Placebo,countdistinct,usubjid,_ALL_,1,
Y,Y,GENERAL DISORDERS AND ADMINISTRA,CHILLS,Placebo,count,quantify,_ALL_,3,
Y,Y,GENERAL DISORDERS AND ADMINISTRA,CHILLS,Xanomeline High Dose,countdistinct,usubjid,_ALL_,1,
Y,Y,GENERAL DISORDERS AND ADMINISTRA,CHILLS,Xanomeline High Dose,count,quantify,_ALL_,1,
Y,Y,GENERAL DISORDERS AND ADMINISTRA,CHILLS,Xanomeline Low Dose,countdistinct,usubjid,_ALL_,1,
Y,Y,GENERAL DISORDERS AND ADMINISTRA,CHILLS,Xanomeline Low Dose,count,quantify,_ALL_,2,
Y,Y,GENERAL DISORDERS AND ADMINISTRA,FATIGUE,Placebo,countdistinct,usubjid,_ALL_,1,
Y,Y,GENERAL DISORDERS AND ADMINISTRA,FATIGUE,Placebo,count,quantify,_ALL_,2,
Y,Y,GENERAL DISORDERS AND ADMINISTRA,FATIGUE,Xanomeline High Dose,countdistinct,usubjid,_ALL_,5,
Y,Y,GENERAL DISORDERS AND ADMINISTRA,FATIGUE,Xanomeline High Dose,count,quantify,_ALL_,5,
Y,Y,GENERAL DISORDERS AND ADMINISTRA,FATIGUE,Xanomeline Low Dose,countdistinct,usubjid,_ALL_,5,
Y,Y,GENERAL DISORDERS AND ADMINISTRA,FATIGUE,Xanomeline Low Dose,count,quantify,_ALL_,5,
Y,Y,GENERAL DISORDERS AND ADMINISTRA,FEELING ABNORMAL,Xanomeline High Dose,countdistinct,usubjid,_ALL_,1,
Y,Y,GENERAL DISORDERS AND ADMINISTRA,FEELING ABNORMAL,Xanomeline High Dose,count,quantify,_ALL_,1,
Y,Y,GENERAL DISORDERS AND ADMINISTRA,FEELING COLD,Xanomeline High Dose,countdistinct,usubjid,_ALL_,1,
Y,Y,GENERAL DISORDERS AND ADMINISTRA,FEELING COLD,Xanomeline High Dose,count,quantify,_ALL_,1,
Y,Y,GENERAL DISORDERS AND ADMINISTRA,INFLAMMATION,Xanomeline Low Dose,countdistinct,usubjid,_ALL_,1,
Y,Y,GENERAL DISORDERS AND ADMINISTRA,INFLAMMATION,Xanomeline Low Dose,count,quantify,_ALL_,1,
Y,Y,GENERAL DISORDERS AND ADMINISTRA,MALAISE,Xanomeline High Dose,countdistinct,usubjid,_ALL_,2,
Y,Y,GENERAL DISORDERS AND ADMINISTRA,MALAISE,Xanomeline High Dose,count,quantify,_ALL_,3,
Y,Y,GENERAL DISORDERS AND ADMINISTRA,MALAISE,Xanomeline Low Dose,countdistinct,usubjid,_ALL_,1,
Y,Y,GENERAL DISORDERS AND ADMINISTRA,MALAISE,Xanomeline Low Dose,count,quantify,_ALL_,2,
Y,Y,GENERAL DISORDERS AND ADMINISTRA,OEDEMA,Xanomeline Low Dose,countdistinct,usubjid,_ALL_,2,
Y,Y,GENERAL DISORDERS AND ADMINISTRA,OEDEMA,Xanomeline Low Dose,count,quantify,_ALL_,2,
Y,Y,GENERAL DISORDERS AND ADMINISTRA,OEDEMA PERIPHERAL,Placebo,countdistinct,usubjid,_ALL_,2,
Y,Y,GENERAL DISORDERS AND ADMINISTRA,OEDEMA PERIPHERAL,Placebo,count,quantify,_ALL_,3,
Y,Y,GENERAL DISORDERS AND ADMINISTRA,OEDEMA PERIPHERAL,Xanomeline High Dose,countdistinct,usubjid,_ALL_,2,
Y,Y,GENERAL DISORDERS AND ADMINISTRA,OEDEMA PERIPHERAL,Xanomeline High Dose,count,quantify,_ALL_,3,
Y,Y,GENERAL DISORDERS AND ADMINISTRA,OEDEMA PERIPHERAL,Xanomeline Low Dose,countdistinct,usubjid,_ALL_,1,
Y,Y,GENERAL DISORDERS AND ADMINISTRA,OEDEMA PERIPHERAL,Xanomeline Low Dose,count,quantify,_ALL_,1,
Y,Y,GENERAL DISORDERS AND ADMINISTRA,PAIN,Xanomeline High Dose,countdistinct,usubjid,_ALL_,1,
Y,Y,GENERAL DISORDERS AND ADMINISTRA,PAIN,Xanomeline High Dose,count,quantify,_ALL_,1,
Y,Y,GENERAL DISORDERS AND ADMINISTRA,PAIN,Xanomeline Low Dose,countdistinct,usubjid,_ALL_,1,
Y,Y,GENERAL DISORDERS AND ADMINISTRA,PAIN,Xanomeline Low Dose,count,quantify,_ALL_,2,
Y,Y,GENERAL DISORDERS AND ADMINISTRA,PYREXIA,Placebo,countdistinct,usubjid,_ALL_,2,
Y,Y,GENERAL DISORDERS AND ADMINISTRA,PYREXIA,Placebo,count,quantify,_ALL_,2,
Y,Y,GENERAL DISORDERS AND ADMINISTRA,PYREXIA,Xanomeline High Dose,countdistinct,usubjid,_ALL_,1,
Y,Y,GENERAL DISORDERS AND ADMINISTRA,PYREXIA,Xanomeline High Dose,count,quantify,_ALL_,1,
Y,Y,GENERAL DISORDERS AND ADMINISTRA,SECRETION DISCHARGE,Xanomeline Low Dose,countdistinct,usubjid,_ALL_,1,
Y,Y,GENERAL DISORDERS AND ADMINISTRA,SECRETION DISCHARGE,Xanomeline Low Dose,count,quantify,_ALL_,2,
Y,Y,GENERAL DISORDERS AND ADMINISTRA,SUDDEN DEATH,Xanomeline Low Dose,countdistinct,usubjid,_ALL_,1,
Y,Y,GENERAL DISORDERS AND ADMINISTRA,SUDDEN DEATH,Xanomeline Low Dose,count,quantify,_ALL_,1,
Y,Y,GENERAL DISORDERS AND ADMINISTRA,SWELLING,Xanomeline Low Dose,countdistinct,usubjid,_ALL_,1,
Y,Y,GENERAL DISORDERS AND ADMINISTRA,SWELLING,Xanomeline Low Dose,count,quantify,_ALL_,1,
Y,Y,GENERAL DISORDERS AND ADMINISTRA,ULCER,Xanomeline Low Dose,countdistinct,usubjid,_ALL_,1,
Y,Y,GENERAL DISORDERS AND ADMINISTRA,ULCER,Xanomeline Low Dose,count,quantify,_ALL_,1,
Y,Y,HEPATOBILIARY DISORDERS,HYPERBILIRUBINAEMIA,Placebo,countdistinct,usubjid,_ALL_,1,
Y,Y,HEPATOBILIARY DISORDERS,HYPERBILIRUBINAEMIA,Placebo,count,quantify,_ALL_,1,
Y,Y,IMMUNE SYSTEM DISORDERS,HYPERSENSITIVITY,Xanomeline Low Dose,countdistinct,usubjid,_ALL_,1,
Y,Y,IMMUNE SYSTEM DISORDERS,HYPERSENSITIVITY,Xanomeline Low Dose,count,quantify,_ALL_,2,
Y,Y,INFECTIONS AND INFESTATIONS,BRONCHITIS,Placebo,countdistinct,usubjid,_ALL_,1,
Y,Y,INFECTIONS AND INFESTATIONS,BRONCHITIS,Placebo,count,quantify,_ALL_,1,
Y,Y,INFECTIONS AND INFESTATIONS,CELLULITIS,Xanomeline Low Dose,countdistinct,usubjid,_ALL_,1,
Y,Y,INFECTIONS AND INFESTATIONS,CELLULITIS,Xanomeline Low Dose,count,quantify,_ALL_,1,
Y,Y,INFECTIONS AND INFESTATIONS,CERVICITIS,Placebo,countdistinct,usubjid,_ALL_,1,
Y,Y,INFECTIONS AND INFESTATIONS,CERVICITIS,Placebo,count,quantify,_ALL_,2,
Y,Y,INFECTIONS AND INFESTATIONS,CYSTITIS,Placebo,countdistinct,usubjid,_ALL_,1,
Y,Y,INFECTIONS AND INFESTATIONS,CYSTITIS,Placebo,count,quantify,_ALL_,1,
Y,Y,INFECTIONS AND INFESTATIONS,CYSTITIS,Xanomeline High Dose,countdistinct,usubjid,_ALL_,1,
Y,Y,INFECTIONS AND INFESTATIONS,CYSTITIS,Xanomeline High Dose,count,quantify,_ALL_,1,
Y,Y,INFECTIONS AND INFESTATIONS,EAR INFECTION,Placebo,countdistinct,usubjid,_ALL_,2,
Y,Y,INFECTIONS AND INFESTATIONS,EAR INFECTION,Placebo,count,quantify,_ALL_,4,
Y,Y,INFECTIONS AND INFESTATIONS,GASTROENTERITIS VIRAL,Placebo,countdistinct,usubjid,_ALL_,1,
Y,Y,INFECTIONS AND INFESTATIONS,GASTROENTERITIS VIRAL,Placebo,count,quantify,_ALL_,1,
Y,Y,INFECTIONS AND INFESTATIONS,HORDEOLUM,Xanomeline High Dose,countdistinct,usubjid,_ALL_,1,
Y,Y,INFECTIONS AND INFESTATIONS,HORDEOLUM,Xanomeline High Dose,count,quantify,_ALL_,1,
Y,Y,INFECTIONS AND INFESTATIONS,INFLUENZA,Placebo,countdistinct,usubjid,_ALL_,1,
Y,Y,INFECTIONS AND INFESTATIONS,INFLUENZA,Placebo,count,quantify,_ALL_,2,
Y,Y,INFECTIONS AND INFESTATIONS,INFLUENZA,Xanomeline High Dose,countdistinct,usubjid,_ALL_,1,
Y,Y,INFECTIONS AND INFESTATIONS,INFLUENZA,Xanomeline High Dose,count,quantify,_ALL_,1,
Y,Y,INFECTIONS AND INFESTATIONS,INFLUENZA,Xanomeline Low Dose,countdistinct,usubjid,_ALL_,1,
Y,Y,INFECTIONS AND INFESTATIONS,INFLUENZA,Xanomeline Low Dose,count,quantify,_ALL_,1,
Y,Y,INFECTIONS AND INFESTATIONS,LOCALISED INFECTION,Placebo,countdistinct,usubjid,_ALL_,1,
Y,Y,INFECTIONS AND INFESTATIONS,LOCALISED INFECTION,Placebo,count,quantify,_ALL_,2,
Y,Y,INFECTIONS AND INFESTATIONS,LOWER RESPIRATORY TRACT INFECTIO,Xanomeline High Dose,countdistinct,usubjid,_ALL_,1,
Y,Y,INFECTIONS AND INFESTATIONS,LOWER RESPIRATORY TRACT INFECTIO,Xanomeline High Dose,count,quantify,_ALL_,2,
Y,Y,INFECTIONS AND INFESTATIONS,NASOPHARYNGITIS,Placebo,countdistinct,usubjid,_ALL_,2,
Y,Y,INFECTIONS AND INFESTATIONS,NASOPHARYNGITIS,Placebo,count,quantify,_ALL_,4,
Y,Y,INFECTIONS AND INFESTATIONS,NASOPHARYNGITIS,Xanomeline High Dose,countdistinct,usubjid,_ALL_,6,
Y,Y,INFECTIONS AND INFESTATIONS,NASOPHARYNGITIS,Xanomeline High Dose,count,quantify,_ALL_,8,
Y,Y,INFECTIONS AND INFESTATIONS,NASOPHARYNGITIS,Xanomeline Low Dose,countdistinct,usubjid,_ALL_,4,
Y,Y,INFECTIONS AND INFESTATIONS,NASOPHARYNGITIS,Xanomeline Low Dose,count,quantify,_ALL_,9,
Y,Y,INFECTIONS AND INFESTATIONS,PNEUMONIA,Xanomeline Low Dose,countdistinct,usubjid,_ALL_,1,
Y,Y,INFECTIONS AND INFESTATIONS,PNEUMONIA,Xanomeline Low Dose,count,quantify,_ALL_,2,
Y,Y,INFECTIONS AND INFESTATIONS,RHINITIS,Xanomeline High Dose,countdistinct,usubjid,_ALL_,1,
Y,Y,INFECTIONS AND INFESTATIONS,RHINITIS,Xanomeline High Dose,count,quantify,_ALL_,1,
Y,Y,INFECTIONS AND INFESTATIONS,UPPER RESPIRATORY TRACT INFECTIO,Placebo,countdistinct,usubjid,_ALL_,6,
Y,Y,INFECTIONS AND INFESTATIONS,UPPER RESPIRATORY TRACT INFECTIO,Placebo,count,quantify,_ALL_,12,
Y,Y,INFECTIONS AND INFESTATIONS,UPPER RESPIRATORY TRACT INFECTIO,Xanomeline High Dose,countdistinct,usubjid,_ALL_,3,
Y,Y,INFECTIONS AND INFESTATIONS,UPPER RESPIRATORY TRACT INFECTIO,Xanomeline High Dose,count,quantify,_ALL_,5,
Y,Y,INFECTIONS AND INFESTATIONS,UPPER RESPIRATORY TRACT INFECTIO,Xanomeline Low Dose,countdistinct,usubjid,_ALL_,1,
Y,Y,INFECTIONS AND INFESTATIONS,UPPER RESPIRATORY TRACT INFECTIO,Xanomeline Low Dose,count,quantify,_ALL_,2,
Y,Y,INFECTIONS AND INFESTATIONS,URINARY TRACT INFECTION,Placebo,countdistinct,usubjid,_ALL_,2,
Y,Y,INFECTIONS AND INFESTATIONS,URINARY TRACT INFECTION,Placebo,count,quantify,_ALL_,4,
Y,Y,INFECTIONS AND INFESTATIONS,URINARY TRACT INFECTION,Xanomeline High Dose,countdistinct,usubjid,_ALL_,1,
Y,Y,INFECTIONS AND INFESTATIONS,URINARY TRACT INFECTION,Xanomeline High Dose,count,quantify,_ALL_,1,
Y,Y,INFECTIONS AND INFESTATIONS,VAGINAL MYCOSIS,Placebo,countdistinct,usubjid,_ALL_,1,
Y,Y,INFECTIONS AND INFESTATIONS,VAGINAL MYCOSIS,Placebo,count,quantify,_ALL_,2,
Y,Y,INFECTIONS AND INFESTATIONS,VIRAL INFECTION,Xanomeline Low Dose,countdistinct,usubjid,_ALL_,1,
Y,Y,INFECTIONS AND INFESTATIONS,VIRAL INFECTION,Xanomeline Low Dose,count,quantify,_ALL_,1,
Y,Y,"INJURY, POISONING AND PROCEDURAL",CONTUSION,Placebo,countdistinct,usubjid,_ALL_,1,
Y,Y,"INJURY, POISONING AND PROCEDURAL",CONTUSION,Placebo,count,quantify,_ALL_,1,
Y,Y,"INJURY, POISONING AND PROCEDURAL",CONTUSION,Xanomeline High Dose,countdistinct,usubjid,_ALL_,2,
Y,Y,"INJURY, POISONING AND PROCEDURAL",CONTUSION,Xanomeline High Dose,count,quantify,_ALL_,3,
Y,Y,"INJURY, POISONING AND PROCEDURAL",CONTUSION,Xanomeline Low Dose,countdistinct,usubjid,_ALL_,1,
Y,Y,"INJURY, POISONING AND PROCEDURAL",CONTUSION,Xanomeline Low Dose,count,quantify,_ALL_,3,
Y,Y,"INJURY, POISONING AND PROCEDURAL",EXCORIATION,Placebo,countdistinct,usubjid,_ALL_,2,
Y,Y,"INJURY, POISONING AND PROCEDURAL",EXCORIATION,Placebo,count,quantify,_ALL_,3,
Y,Y,"INJURY, POISONING AND PROCEDURAL",EXCORIATION,Xanomeline High Dose,countdistinct,usubjid,_ALL_,1,
Y,Y,"INJURY, POISONING AND PROCEDURAL",EXCORIATION,Xanomeline High Dose,count,quantify,_ALL_,1,
Y,Y,"INJURY, POISONING AND PROCEDURAL",EXCORIATION,Xanomeline Low Dose,countdistinct,usubjid,_ALL_,1,
Y,Y,"INJURY, POISONING AND PROCEDURAL",EXCORIATION,Xanomeline Low Dose,count,quantify,_ALL_,2,
Y,Y,"INJURY, POISONING AND PROCEDURAL",FACIAL BONES FRACTURE,Xanomeline High Dose,countdistinct,usubjid,_ALL_,1,
Y,Y,"INJURY, POISONING AND PROCEDURAL",FACIAL BONES FRACTURE,Xanomeline High Dose,count,quantify,_ALL_,1,
Y,Y,"INJURY, POISONING AND PROCEDURAL",FALL,Placebo,countdistinct,usubjid,_ALL_,1,
Y,Y,"INJURY, POISONING AND PROCEDURAL",FALL,Placebo,count,quantify,_ALL_,2,
Y,Y,"INJURY, POISONING AND PROCEDURAL",FALL,Xanomeline High Dose,countdistinct,usubjid,_ALL_,1,
Y,Y,"INJURY, POISONING AND PROCEDURAL",FALL,Xanomeline High Dose,count,quantify,_ALL_,1,
Y,Y,"INJURY, POISONING AND PROCEDURAL",FALL,Xanomeline Low Dose,countdistinct,usubjid,_ALL_,2,
Y,Y,"INJURY, POISONING AND PROCEDURAL",FALL,Xanomeline Low Dose,count,quantify,_ALL_,2,
Y,Y,"INJURY, POISONING AND PROCEDURAL",HIP FRACTURE,Placebo,countdistinct,usubjid,_ALL_,1,
Y,Y,"INJURY, POISONING AND PROCEDURAL",HIP FRACTURE,Placebo,count,quantify,_ALL_,2,
Y,Y,"INJURY, POISONING AND PROCEDURAL",HIP FRACTURE,Xanomeline High Dose,countdistinct,usubjid,_ALL_,2,
Y,Y,"INJURY, POISONING AND PROCEDURAL",HIP FRACTURE,Xanomeline High Dose,count,quantify,_ALL_,2,
Y,Y,"INJURY, POISONING AND PROCEDURAL",JOINT DISLOCATION,Xanomeline Low Dose,countdistinct,usubjid,_ALL_,1,
Y,Y,"INJURY, POISONING AND PROCEDURAL",JOINT DISLOCATION,Xanomeline Low Dose,count,quantify,_ALL_,1,
Y,Y,"INJURY, POISONING AND PROCEDURAL",SKIN LACERATION,Placebo,countdistinct,usubjid,_ALL_,1,
Y,Y,"INJURY, POISONING AND PROCEDURAL",SKIN LACERATION,Placebo,count,quantify,_ALL_,1,
Y,Y,"INJURY, POISONING AND PROCEDURAL",SKIN LACERATION,Xanomeline Low Dose,countdistinct,usubjid,_ALL_,2,
Y,Y,"INJURY, POISONING AND PROCEDURAL",SKIN LACERATION,Xanomeline Low Dose,count,quantify,_ALL_,2,
Y,Y,"INJURY, POISONING AND PROCEDURAL",WOUND,Xanomeline Low Dose,countdistinct,usubjid,_ALL_,1,
Y,Y,"INJURY, POISONING AND PROCEDURAL",WOUND,Xanomeline Low Dose,count,quantify,_ALL_,2,
Y,Y,INVESTIGATIONS,BIOPSY,Xanomeline High Dose,countdistinct,usubjid,_ALL_,1,
Y,Y,INVESTIGATIONS,BIOPSY,Xanomeline High Dose,count,quantify,_ALL_,1,
Y,Y,INVESTIGATIONS,BIOPSY PROSTATE,Xanomeline High Dose,countdistinct,usubjid,_ALL_,1,
Y,Y,INVESTIGATIONS,BIOPSY PROSTATE,Xanomeline High Dose,count,quantify,_ALL_,1,
Y,Y,INVESTIGATIONS,BLOOD ALKALINE PHOSPHATASE INCRE,Placebo,countdistinct,usubjid,_ALL_,1,
Y,Y,INVESTIGATIONS,BLOOD ALKALINE PHOSPHATASE INCRE,Placebo,count,quantify,_ALL_,1,
Y,Y,INVESTIGATIONS,BLOOD CHOLESTEROL INCREASED,Xanomeline High Dose,countdistinct,usubjid,_ALL_,1,
Y,Y,INVESTIGATIONS,BLOOD CHOLESTEROL INCREASED,Xanomeline High Dose,count,quantify,_ALL_,1,
Y,Y,INVESTIGATIONS,BLOOD CREATINE PHOSPHOKINASE INC,Placebo,countdistinct,usubjid,_ALL_,1,
Y,Y,INVESTIGATIONS,BLOOD CREATINE PHOSPHOKINASE INC,Placebo,count,quantify,_ALL_,2,
Y,Y,INVESTIGATIONS,BLOOD GLUCOSE INCREASED,Xanomeline High Dose,countdistinct,usubjid,_ALL_,1,
Y,Y,INVESTIGATIONS,BLOOD GLUCOSE INCREASED,Xanomeline High Dose,count,quantify,_ALL_,2,
Y,Y,INVESTIGATIONS,BLOOD GLUCOSE INCREASED,Xanomeline Low Dose,countdistinct,usubjid,_ALL_,1,
Y,Y,INVESTIGATIONS,BLOOD GLUCOSE INCREASED,Xanomeline Low Dose,count,quantify,_ALL_,1,
Y,Y,INVESTIGATIONS,BLOOD URINE PRESENT,Placebo,countdistinct,usubjid,_ALL_,1,
Y,Y,INVESTIGATIONS,BLOOD URINE PRESENT,Placebo,count,quantify,_ALL_,1,
Y,Y,INVESTIGATIONS,BODY TEMPERATURE INCREASED,Xanomeline Low Dose,countdistinct,usubjid,_ALL_,1,
Y,Y,INVESTIGATIONS,BODY TEMPERATURE INCREASED,Xanomeline Low Dose,count,quantify,_ALL_,1,
Y,Y,INVESTIGATIONS,CYSTOSCOPY,Placebo,countdistinct,usubjid,_ALL_,1,
Y,Y,INVESTIGATIONS,CYSTOSCOPY,Placebo,count,quantify,_ALL_,1,
Y,Y,INVESTIGATIONS,ELECTROCARDIOGRAM ST SEGMENT DEP,Placebo,countdistinct,usubjid,_ALL_,4,
Y,Y,INVESTIGATIONS,ELECTROCARDIOGRAM ST SEGMENT DEP,Placebo,count,quantify,_ALL_,4,
Y,Y,INVESTIGATIONS,ELECTROCARDIOGRAM ST SEGMENT DEP,Xanomeline Low Dose,countdistinct,usubjid,_ALL_,1,
Y,Y,INVESTIGATIONS,ELECTROCARDIOGRAM ST SEGMENT DEP,Xanomeline Low Dose,count,quantify,_ALL_,2,
Y,Y,INVESTIGATIONS,ELECTROCARDIOGRAM T WAVE AMPLITU,Placebo,countdistinct,usubjid,_ALL_,1,
Y,Y,INVESTIGATIONS,ELECTROCARDIOGRAM T WAVE AMPLITU,Placebo,count,quantify,_ALL_,1,
Y,Y,INVESTIGATIONS,ELECTROCARDIOGRAM T WAVE AMPLITU,Xanomeline Low Dose,countdistinct,usubjid,_ALL_,1,
Y,Y,INVESTIGATIONS,ELECTROCARDIOGRAM T WAVE AMPLITU,Xanomeline Low Dose,count,quantify,_ALL_,1,
Y,Y,INVESTIGATIONS,ELECTROCARDIOGRAM T WAVE INVERSI,Placebo,countdistinct,usubjid,_ALL_,2,
Y,Y,INVESTIGATIONS,ELECTROCARDIOGRAM T WAVE INVERSI,Placebo,count,quantify,_ALL_,3,
Y,Y,INVESTIGATIONS,ELECTROCARDIOGRAM T WAVE INVERSI,Xanomeline High Dose,countdistinct,usubjid,_ALL_,1,
Y,Y,INVESTIGATIONS,ELECTROCARDIOGRAM T WAVE INVERSI,Xanomeline High Dose,count,quantify,_ALL_,1,
Y,Y,INVESTIGATIONS,ELECTROCARDIOGRAM T WAVE INVERSI,Xanomeline Low Dose,countdistinct,usubjid,_ALL_,1,
Y,Y,INVESTIGATIONS,ELECTROCARDIOGRAM T WAVE INVERSI,Xanomeline Low Dose,count,quantify,_ALL_,1,
Y,Y,INVESTIGATIONS,HEART RATE INCREASED,Placebo,countdistinct,usubjid,_ALL_,1,
Y,Y,INVESTIGATIONS,HEART RATE INCREASED,Placebo,count,quantify,_ALL_,2,
Y,Y,INVESTIGATIONS,HEART RATE IRREGULAR,Placebo,countdistinct,usubjid,_ALL_,1,
Y,Y,INVESTIGATIONS,HEART RATE IRREGULAR,Placebo,count,quantify,_ALL_,4,
Y,Y,INVESTIGATIONS,NASAL MUCOSA BIOPSY,Xanomeline Low Dose,countdistinct,usubjid,_ALL_,1,
Y,Y,INVESTIGATIONS,NASAL MUCOSA BIOPSY,Xanomeline Low Dose,count,quantify,_ALL_,1,
Y,Y,INVESTIGATIONS,WEIGHT DECREASED,Xanomeline High Dose,countdistinct,usubjid,_ALL_,1,
Y,Y,INVESTIGATIONS,WEIGHT DECREASED,Xanomeline High Dose,count,quantify,_ALL_,2,
Y,Y,METABOLISM AND NUTRITION DISORDE,DECREASED APPETITE,Placebo,countdistinct,usubjid,_ALL_,1,
Y,Y,METABOLISM AND NUTRITION DISORDE,DECREASED APPETITE,Placebo,count,quantify,_ALL_,2,
Y,Y,METABOLISM AND NUTRITION DISORDE,DECREASED APPETITE,Xanomeline High Dose,countdistinct,usubjid,_ALL_,1,
Y,Y,METABOLISM AND NUTRITION DISORDE,DECREASED APPETITE,Xanomeline High Dose,count,quantify,_ALL_,2,
Y,Y,METABOLISM AND NUTRITION DISORDE,DEHYDRATION,Placebo,countdistinct,usubjid,_ALL_,1,
Y,Y,METABOLISM AND NUTRITION DISORDE,DEHYDRATION,Placebo,count,quantify,_ALL_,1,
Y,Y,METABOLISM AND NUTRITION DISORDE,DIABETES MELLITUS,Placebo,countdistinct,usubjid,_ALL_,1,
Y,Y,METABOLISM AND NUTRITION DISORDE,DIABETES MELLITUS,Placebo,count,quantify,_ALL_,1,
Y,Y,METABOLISM AND NUTRITION DISORDE,FOOD CRAVING,Placebo,countdistinct,usubjid,_ALL_,1,
Y,Y,METABOLISM AND NUTRITION DISORDE,FOOD CRAVING,Placebo,count,quantify,_ALL_,1,
Y,Y,METABOLISM AND NUTRITION DISORDE,FOOD CRAVING,Xanomeline Low Dose,countdistinct,usubjid,_ALL_,1,
Y,Y,METABOLISM AND NUTRITION DISORDE,FOOD CRAVING,Xanomeline Low Dose,count,quantify,_ALL_,1,
Y,Y,METABOLISM AND NUTRITION DISORDE,HYPONATRAEMIA,Placebo,countdistinct,usubjid,_ALL_,1,
Y,Y,METABOLISM AND NUTRITION DISORDE,HYPONATRAEMIA,Placebo,count,quantify,_ALL_,1,
Y,Y,METABOLISM AND NUTRITION DISORDE,INCREASED APPETITE,Placebo,countdistinct,usubjid,_ALL_,1,
Y,Y,METABOLISM AND NUTRITION DISORDE,INCREASED APPETITE,Placebo,count,quantify,_ALL_,2,
Y,Y,METABOLISM AND NUTRITION DISORDE,INCREASED APPETITE,Xanomeline High Dose,countdistinct,usubjid,_ALL_,1,
Y,Y,METABOLISM AND NUTRITION DISORDE,INCREASED APPETITE,Xanomeline High Dose,count,quantify,_ALL_,2,
Y,Y,MUSCULOSKELETAL AND CONNECTIVE T,ARTHRALGIA,Placebo,countdistinct,usubjid,_ALL_,1,
Y,Y,MUSCULOSKELETAL AND CONNECTIVE T,ARTHRALGIA,Placebo,count,quantify,_ALL_,1,
Y,Y,MUSCULOSKELETAL AND CONNECTIVE T,ARTHRALGIA,Xanomeline High Dose,countdistinct,usubjid,_ALL_,1,
Y,Y,MUSCULOSKELETAL AND CONNECTIVE T,ARTHRALGIA,Xanomeline High Dose,count,quantify,_ALL_,1,
Y,Y,MUSCULOSKELETAL AND CONNECTIVE T,ARTHRALGIA,Xanomeline Low Dose,countdistinct,usubjid,_ALL_,2,
Y,Y,MUSCULOSKELETAL AND CONNECTIVE T,ARTHRALGIA,Xanomeline Low Dose,count,quantify,_ALL_,4,
Y,Y,MUSCULOSKELETAL AND CONNECTIVE T,ARTHRITIS,Xanomeline High Dose,countdistinct,usubjid,_ALL_,1,
Y,Y,MUSCULOSKELETAL AND CONNECTIVE T,ARTHRITIS,Xanomeline High Dose,count,quantify,_ALL_,1,
Y,Y,MUSCULOSKELETAL AND CONNECTIVE T,BACK PAIN,Placebo,countdistinct,usubjid,_ALL_,1,
Y,Y,MUSCULOSKELETAL AND CONNECTIVE T,BACK PAIN,Placebo,count,quantify,_ALL_,2,
Y,Y,MUSCULOSKELETAL AND CONNECTIVE T,BACK PAIN,Xanomeline High Dose,countdistinct,usubjid,_ALL_,3,
Y,Y,MUSCULOSKELETAL AND CONNECTIVE T,BACK PAIN,Xanomeline High Dose,count,quantify,_ALL_,4,
Y,Y,MUSCULOSKELETAL AND CONNECTIVE T,BACK PAIN,Xanomeline Low Dose,countdistinct,usubjid,_ALL_,1,
Y,Y,MUSCULOSKELETAL AND CONNECTIVE T,BACK PAIN,Xanomeline Low Dose,count,quantify,_ALL_,1,
Y,Y,MUSCULOSKELETAL AND CONNECTIVE T,FLANK PAIN,Xanomeline High Dose,countdistinct,usubjid,_ALL_,1,
Y,Y,MUSCULOSKELETAL AND CONNECTIVE T,FLANK PAIN,Xanomeline High Dose,count,quantify,_ALL_,1,
Y,Y,MUSCULOSKELETAL AND CONNECTIVE T,MUSCLE SPASMS,Xanomeline High Dose,countdistinct,usubjid,_ALL_,1,
Y,Y,MUSCULOSKELETAL AND CONNECTIVE T,MUSCLE SPASMS,Xanomeline High Dose,count,quantify,_ALL_,2,
Y,Y,MUSCULOSKELETAL AND CONNECTIVE T,MUSCLE SPASMS,Xanomeline Low Dose,countdistinct,usubjid,_ALL_,1,
Y,Y,MUSCULOSKELETAL AND CONNECTIVE T,MUSCLE SPASMS,Xanomeline Low Dose,count,quantify,_ALL_,1,
Y,Y,MUSCULOSKELETAL AND CONNECTIVE T,MUSCULAR WEAKNESS,Xanomeline Low Dose,countdistinct,usubjid,_ALL_,1,
Y,Y,MUSCULOSKELETAL AND CONNECTIVE T,MUSCULAR WEAKNESS,Xanomeline Low Dose,count,quantify,_ALL_,2,
Y,Y,MUSCULOSKELETAL AND CONNECTIVE T,MYALGIA,Xanomeline High Dose,countdistinct,usubjid,_ALL_,1,
Y,Y,MUSCULOSKELETAL AND CONNECTIVE T,MYALGIA,Xanomeline High Dose,count,quantify,_ALL_,1,
Y,Y,MUSCULOSKELETAL AND CONNECTIVE T,PAIN IN EXTREMITY,Placebo,countdistinct,usubjid,_ALL_,1,
Y,Y,MUSCULOSKELETAL AND CONNECTIVE T,PAIN IN EXTREMITY,Placebo,count,quantify,_ALL_,1,
Y,Y,MUSCULOSKELETAL AND CONNECTIVE T,SHOULDER PAIN,Placebo,countdistinct,usubjid,_ALL_,1,
Y,Y,MUSCULOSKELETAL AND CONNECTIVE T,SHOULDER PAIN,Placebo,count,quantify,_ALL_,2,
Y,Y,MUSCULOSKELETAL AND CONNECTIVE T,SHOULDER PAIN,Xanomeline Low Dose,countdistinct,usubjid,_ALL_,2,
Y,Y,MUSCULOSKELETAL AND CONNECTIVE T,SHOULDER PAIN,Xanomeline Low Dose,count,quantify,_ALL_,2,
Y,Y,"NEOPLASMS BENIGN, MALIGNANT AND",COLON CANCER,Xanomeline Low Dose,countdistinct,usubjid,_ALL_,1,
Y,Y,"NEOPLASMS BENIGN, MALIGNANT AND",COLON CANCER,Xanomeline Low Dose,count,quantify,_ALL_,1,
Y,Y,"NEOPLASMS BENIGN, MALIGNANT AND",MALIGNANT FIBROUS HISTIOCYTOMA,Xanomeline Low Dose,countdistinct,usubjid,_ALL_,1,
Y,Y,"NEOPLASMS BENIGN, MALIGNANT AND",MALIGNANT FIBROUS HISTIOCYTOMA,Xanomeline Low Dose,count,quantify,_ALL_,2,
Y,Y,"NEOPLASMS BENIGN, MALIGNANT AND",PROSTATE CANCER,Xanomeline High Dose,countdistinct,usubjid,_ALL_,1,
Y,Y,"NEOPLASMS BENIGN, MALIGNANT AND",PROSTATE CANCER,Xanomeline High Dose,count,quantify,_ALL_,1,
Y,Y,NERVOUS SYSTEM DISORDERS,AMNESIA,Xanomeline High Dose,countdistinct,usubjid,_ALL_,1,
Y,Y,NERVOUS SYSTEM DISORDERS,AMNESIA,Xanomeline High Dose,count,quantify,_ALL_,2,
Y,Y,NERVOUS SYSTEM DISORDERS,BALANCE DISORDER,Xanomeline Low Dose,countdistinct,usubjid,_ALL_,1,
Y,Y,NERVOUS SYSTEM DISORDERS,BALANCE DISORDER,Xanomeline Low Dose,count,quantify,_ALL_,3,
Y,Y,NERVOUS SYSTEM DISORDERS,BURNING SENSATION,Xanomeline High Dose,countdistinct,usubjid,_ALL_,2,
Y,Y,NERVOUS SYSTEM DISORDERS,BURNING SENSATION,Xanomeline High Dose,count,quantify,_ALL_,2,
Y,Y,NERVOUS SYSTEM DISORDERS,COGNITIVE DISORDER,Xanomeline High Dose,countdistinct,usubjid,_ALL_,1,
Y,Y,NERVOUS SYSTEM DISORDERS,COGNITIVE DISORDER,Xanomeline High Dose,count,quantify,_ALL_,1,
Y,Y,NERVOUS SYSTEM DISORDERS,COMPLEX PARTIAL SEIZURES,Xanomeline Low Dose,countdistinct,usubjid,_ALL_,1,
Y,Y,NERVOUS SYSTEM DISORDERS,COMPLEX PARTIAL SEIZURES,Xanomeline Low Dose,count,quantify,_ALL_,1,
Y,Y,NERVOUS SYSTEM DISORDERS,COORDINATION ABNORMAL,Xanomeline Low Dose,countdistinct,usubjid,_ALL_,1,
Y,Y,NERVOUS SYSTEM DISORDERS,COORDINATION ABNORMAL,Xanomeline Low Dose,count,quantify,_ALL_,1,
Y,Y,NERVOUS SYSTEM DISORDERS,DIZZINESS,Placebo,countdistinct,usubjid,_ALL_,2,
Y,Y,NERVOUS SYSTEM DISORDERS,DIZZINESS,Placebo,count,quantify,_ALL_,3,
Y,Y,NERVOUS SYSTEM DISORDERS,DIZZINESS,Xanomeline High Dose,countdistinct,usubjid,_ALL_,11,
Y,Y,NERVOUS SYSTEM DISORDERS,DIZZINESS,Xanomeline High Dose,count,quantify,_ALL_,15,
Y,Y,NERVOUS SYSTEM DISORDERS,DIZZINESS,Xanomeline Low Dose,countdistinct,usubjid,_ALL_,8,
Y,Y,NERVOUS SYSTEM DISORDERS,DIZZINESS,Xanomeline Low Dose,count,quantify,_ALL_,13,
Y,Y,NERVOUS SYSTEM DISORDERS,HEADACHE,Placebo,countdistinct,usubjid,_ALL_,3,
Y,Y,NERVOUS SYSTEM DISORDERS,HEADACHE,Placebo,count,quantify,_ALL_,3,
Y,Y,NERVOUS SYSTEM DISORDERS,HEADACHE,Xanomeline High Dose,countdistinct,usubjid,_ALL_,5,
Y,Y,NERVOUS SYSTEM DISORDERS,HEADACHE,Xanomeline High Dose,count,quantify,_ALL_,8,
Y,Y,NERVOUS SYSTEM DISORDERS,HEADACHE,Xanomeline Low Dose,countdistinct,usubjid,_ALL_,3,
Y,Y,NERVOUS SYSTEM DISORDERS,HEADACHE,Xanomeline Low Dose,count,quantify,_ALL_,4,
Y,Y,NERVOUS SYSTEM DISORDERS,HEMIANOPIA HOMONYMOUS,Xanomeline Low Dose,countdistinct,usubjid,_ALL_,1,
Y,Y,NERVOUS SYSTEM DISORDERS,HEMIANOPIA HOMONYMOUS,Xanomeline Low Dose,count,quantify,_ALL_,1,
Y,Y,NERVOUS SYSTEM DISORDERS,HYPERSOMNIA,Xanomeline High Dose,countdistinct,usubjid,_ALL_,1,
Y,Y,NERVOUS SYSTEM DISORDERS,HYPERSOMNIA,Xanomeline High Dose,count,quantify,_ALL_,1,
Y,Y,NERVOUS SYSTEM DISORDERS,LETHARGY,Xanomeline High Dose,countdistinct,usubjid,_ALL_,1,
Y,Y,NERVOUS SYSTEM DISORDERS,LETHARGY,Xanomeline High Dose,count,quantify,_ALL_,1,
Y,Y,NERVOUS SYSTEM DISORDERS,LETHARGY,Xanomeline Low Dose,countdistinct,usubjid,_ALL_,1,
Y,Y,NERVOUS SYSTEM DISORDERS,LETHARGY,Xanomeline Low Dose,count,quantify,_ALL_,1,
Y,Y,NERVOUS SYSTEM DISORDERS,PARAESTHESIA,Xanomeline High Dose,countdistinct,usubjid,_ALL_,1,
Y,Y,NERVOUS SYSTEM DISORDERS,PARAESTHESIA,Xanomeline High Dose,count,quantify,_ALL_,1,
Y,Y,NERVOUS SYSTEM DISORDERS,PARAESTHESIA ORAL,Xanomeline Low Dose,countdistinct,usubjid,_ALL_,1,
Y,Y,NERVOUS SYSTEM DISORDERS,PARAESTHESIA ORAL,Xanomeline Low Dose,count,quantify,_ALL_,1,
Y,Y,NERVOUS SYSTEM DISORDERS,PARKINSON'S DISEASE,Placebo,countdistinct,usubjid,_ALL_,1,
Y,Y,NERVOUS SYSTEM DISORDERS,PARKINSON'S DISEASE,Placebo,count,quantify,_ALL_,1,
Y,Y,NERVOUS SYSTEM DISORDERS,PAROSMIA,Xanomeline High Dose,countdistinct,usubjid,_ALL_,1,
Y,Y,NERVOUS SYSTEM DISORDERS,PAROSMIA,Xanomeline High Dose,count,quantify,_ALL_,2,
Y,Y,NERVOUS SYSTEM DISORDERS,PARTIAL SEIZURES WITH SECONDARY,Xanomeline High Dose,countdistinct,usubjid,_ALL_,1,
Y,Y,NERVOUS SYSTEM DISORDERS,PARTIAL SEIZURES WITH SECONDARY,Xanomeline High Dose,count,quantify,_ALL_,1,
Y,Y,NERVOUS SYSTEM DISORDERS,PSYCHOMOTOR HYPERACTIVITY,Placebo,countdistinct,usubjid,_ALL_,1,
Y,Y,NERVOUS SYSTEM DISORDERS,PSYCHOMOTOR HYPERACTIVITY,Placebo,count,quantify,_ALL_,1,
Y,Y,NERVOUS SYSTEM DISORDERS,SOMNOLENCE,Placebo,countdistinct,usubjid,_ALL_,2,
Y,Y,NERVOUS SYSTEM DISORDERS,SOMNOLENCE,Placebo,count,quantify,_ALL_,3,
Y,Y,NERVOUS SYSTEM DISORDERS,SOMNOLENCE,Xanomeline High Dose,countdistinct,usubjid,_ALL_,1,
Y,Y,NERVOUS SYSTEM DISORDERS,SOMNOLENCE,Xanomeline High Dose,count,quantify,_ALL_,1,
Y,Y,NERVOUS SYSTEM DISORDERS,SOMNOLENCE,Xanomeline Low Dose,countdistinct,usubjid,_ALL_,3,
Y,Y,NERVOUS SYSTEM DISORDERS,SOMNOLENCE,Xanomeline Low Dose,count,quantify,_ALL_,5,
Y,Y,NERVOUS SYSTEM DISORDERS,STUPOR,Xanomeline Low Dose,countdistinct,usubjid,_ALL_,1,
Y,Y,NERVOUS SYSTEM DISORDERS,STUPOR,Xanomeline Low Dose,count,quantify,_ALL_,1,
Y,Y,NERVOUS SYSTEM DISORDERS,SYNCOPE,Xanomeline High Dose,countdistinct,usubjid,_ALL_,3,
Y,Y,NERVOUS SYSTEM DISORDERS,SYNCOPE,Xanomeline High Dose,count,quantify,_ALL_,4,
Y,Y,NERVOUS SYSTEM DISORDERS,SYNCOPE,Xanomeline Low Dose,countdistinct,usubjid,_ALL_,4,
Y,Y,NERVOUS SYSTEM DISORDERS,SYNCOPE,Xanomeline Low Dose,count,quantify,_ALL_,6,
Y,Y,NERVOUS SYSTEM DISORDERS,SYNCOPE VASOVAGAL,Xanomeline High Dose,countdistinct,usubjid,_ALL_,1,
Y,Y,NERVOUS SYSTEM DISORDERS,SYNCOPE VASOVAGAL,Xanomeline High Dose,count,quantify,_ALL_,1,
Y,Y,NERVOUS SYSTEM DISORDERS,TRANSIENT ISCHAEMIC ATTACK,Xanomeline High Dose,countdistinct,usubjid,_ALL_,1,
Y,Y,NERVOUS SYSTEM DISORDERS,TRANSIENT ISCHAEMIC ATTACK,Xanomeline High Dose,count,quantify,_ALL_,1,
Y,Y,NERVOUS SYSTEM DISORDERS,TRANSIENT ISCHAEMIC ATTACK,Xanomeline Low Dose,countdistinct,usubjid,_ALL_,2,
Y,Y,NERVOUS SYSTEM DISORDERS,TRANSIENT ISCHAEMIC ATTACK,Xanomeline Low Dose,count,quantify,_ALL_,3,
Y,Y,PSYCHIATRIC DISORDERS,AGITATION,Placebo,countdistinct,usubjid,_ALL_,2,
Y,Y,PSYCHIATRIC DISORDERS,AGITATION,Placebo,count,quantify,_ALL_,2,
Y,Y,PSYCHIATRIC DISORDERS,AGITATION,Xanomeline High Dose,countdistinct,usubjid,_ALL_,1,
Y,Y,PSYCHIATRIC DISORDERS,AGITATION,Xanomeline High Dose,count,quantify,_ALL_,1,
Y,Y,PSYCHIATRIC DISORDERS,AGITATION,Xanomeline Low Dose,countdistinct,usubjid,_ALL_,2,
Y,Y,PSYCHIATRIC DISORDERS,AGITATION,Xanomeline Low Dose,count,quantify,_ALL_,2,
Y,Y,PSYCHIATRIC DISORDERS,ANXIETY,Xanomeline Low Dose,countdistinct,usubjid,_ALL_,3,
Y,Y,PSYCHIATRIC DISORDERS,ANXIETY,Xanomeline Low Dose,count,quantify,_ALL_,4,
Y,Y,PSYCHIATRIC DISORDERS,COMPLETED SUICIDE,Placebo,countdistinct,usubjid,_ALL_,1,
Y,Y,PSYCHIATRIC DISORDERS,COMPLETED SUICIDE,Placebo,count,quantify,_ALL_,1,
Y,Y,PSYCHIATRIC DISORDERS,CONFUSIONAL STATE,Placebo,countdistinct,usubjid,_ALL_,2,
Y,Y,PSYCHIATRIC DISORDERS,CONFUSIONAL STATE,Placebo,count,quantify,_ALL_,2,
Y,Y,PSYCHIATRIC DISORDERS,CONFUSIONAL STATE,Xanomeline High Dose,countdistinct,usubjid,_ALL_,1,
Y,Y,PSYCHIATRIC DISORDERS,CONFUSIONAL STATE,Xanomeline High Dose,count,quantify,_ALL_,1,
Y,Y,PSYCHIATRIC DISORDERS,CONFUSIONAL STATE,Xanomeline Low Dose,countdistinct,usubjid,_ALL_,3,
Y,Y,PSYCHIATRIC DISORDERS,CONFUSIONAL STATE,Xanomeline Low Dose,count,quantify,_ALL_,3,
Y,Y,PSYCHIATRIC DISORDERS,DELIRIUM,Xanomeline High Dose,countdistinct,usubjid,_ALL_,1,
Y,Y,PSYCHIATRIC DISORDERS,DELIRIUM,Xanomeline High Dose,count,quantify,_ALL_,1,
Y,Y,PSYCHIATRIC DISORDERS,DELUSION,Placebo,countdistinct,usubjid,_ALL_,1,
Y,Y,PSYCHIATRIC DISORDERS,DELUSION,Placebo,count,quantify,_ALL_,1,
Y,Y,PSYCHIATRIC DISORDERS,DELUSION,Xanomeline High Dose,countdistinct,usubjid,_ALL_,1,
Y,Y,PSYCHIATRIC DISORDERS,DELUSION,Xanomeline High Dose,count,quantify,_ALL_,1,
Y,Y,PSYCHIATRIC DISORDERS,DEPRESSED MOOD,Xanomeline Low Dose,countdistinct,usubjid,_ALL_,1,
Y,Y,PSYCHIATRIC DISORDERS,DEPRESSED MOOD,Xanomeline Low Dose,count,quantify,_ALL_,2,
Y,Y,PSYCHIATRIC DISORDERS,DISORIENTATION,Placebo,countdistinct,usubjid,_ALL_,1,
Y,Y,PSYCHIATRIC DISORDERS,DISORIENTATION,Placebo,count,quantify,_ALL_,1,
Y,Y,PSYCHIATRIC DISORDERS,HALLUCINATION,Xanomeline High Dose,countdistinct,usubjid,_ALL_,1,
Y,Y,PSYCHIATRIC DISORDERS,HALLUCINATION,Xanomeline High Dose,count,quantify,_ALL_,1,
Y,Y,PSYCHIATRIC DISORDERS,"HALLUCINATION, VISUAL",Xanomeline High Dose,countdistinct,usubjid,_ALL_,1,
Y,Y,PSYCHIATRIC DISORDERS,"HALLUCINATION, VISUAL",Xanomeline High Dose,count,quantify,_ALL_,1,
Y,Y,PSYCHIATRIC DISORDERS,INSOMNIA,Placebo,countdistinct,usubjid,_ALL_,2,
Y,Y,PSYCHIATRIC DISORDERS,INSOMNIA,Placebo,count,quantify,_ALL_,3,
Y,Y,PSYCHIATRIC DISORDERS,INSOMNIA,Xanomeline High Dose,countdistinct,usubjid,_ALL_,2,
Y,Y,PSYCHIATRIC DISORDERS,INSOMNIA,Xanomeline High Dose,count,quantify,_ALL_,2,
Y,Y,PSYCHIATRIC DISORDERS,IRRITABILITY,Placebo,countdistinct,usubjid,_ALL_,1,
Y,Y,PSYCHIATRIC DISORDERS,IRRITABILITY,Placebo,count,quantify,_ALL_,2,
Y,Y,PSYCHIATRIC DISORDERS,IRRITABILITY,Xanomeline Low Dose,countdistinct,usubjid,_ALL_,1,
Y,Y,PSYCHIATRIC DISORDERS,IRRITABILITY,Xanomeline Low Dose,count,quantify,_ALL_,1,
Y,Y,PSYCHIATRIC DISORDERS,LIBIDO DECREASED,Xanomeline High Dose,countdistinct,usubjid,_ALL_,1,
Y,Y,PSYCHIATRIC DISORDERS,LIBIDO DECREASED,Xanomeline High Dose,count,quantify,_ALL_,1,
Y,Y,PSYCHIATRIC DISORDERS,LISTLESS,Xanomeline High Dose,countdistinct,usubjid,_ALL_,1,
Y,Y,PSYCHIATRIC DISORDERS,LISTLESS,Xanomeline High Dose,count,quantify,_ALL_,1,
Y,Y,PSYCHIATRIC DISORDERS,NIGHTMARE,Xanomeline High Dose,countdistinct,usubjid,_ALL_,1,
Y,Y,PSYCHIATRIC DISORDERS,NIGHTMARE,Xanomeline High Dose,count,quantify,_ALL_,1,
Y,Y,PSYCHIATRIC DISORDERS,RESTLESSNESS,Xanomeline Low Dose,countdistinct,usubjid,_ALL_,1,
Y,Y,PSYCHIATRIC DISORDERS,RESTLESSNESS,Xanomeline Low Dose,count,quantify,_ALL_,2,
Y,Y,RENAL AND URINARY DISORDERS,CALCULUS URETHRAL,Xanomeline High Dose,countdistinct,usubjid,_ALL_,1,
Y,Y,RENAL AND URINARY DISORDERS,CALCULUS URETHRAL,Xanomeline High Dose,count,quantify,_ALL_,1,
Y,Y,RENAL AND URINARY DISORDERS,DYSURIA,Placebo,countdistinct,usubjid,_ALL_,1,
Y,Y,RENAL AND URINARY DISORDERS,DYSURIA,Placebo,count,quantify,_ALL_,1,
Y,Y,RENAL AND URINARY DISORDERS,DYSURIA,Xanomeline Low Dose,countdistinct,usubjid,_ALL_,1,
Y,Y,RENAL AND URINARY DISORDERS,DYSURIA,Xanomeline Low Dose,count,quantify,_ALL_,1,
Y,Y,RENAL AND URINARY DISORDERS,INCONTINENCE,Xanomeline Low Dose,countdistinct,usubjid,_ALL_,1,
Y,Y,RENAL AND URINARY DISORDERS,INCONTINENCE,Xanomeline Low Dose,count,quantify,_ALL_,1,
Y,Y,RENAL AND URINARY DISORDERS,MICTURITION URGENCY,Placebo,countdistinct,usubjid,_ALL_,1,
Y,Y,RENAL AND URINARY DISORDERS,MICTURITION URGENCY,Placebo,count,quantify,_ALL_,1,
Y,Y,RENAL AND URINARY DISORDERS,MICTURITION URGENCY,Xanomeline High Dose,countdistinct,usubjid,_ALL_,1,
Y,Y,RENAL AND URINARY DISORDERS,MICTURITION URGENCY,Xanomeline High Dose,count,quantify,_ALL_,2,
Y,Y,RENAL AND URINARY DISORDERS,MICTURITION URGENCY,Xanomeline Low Dose,countdistinct,usubjid,_ALL_,1,
Y,Y,RENAL AND URINARY DISORDERS,MICTURITION URGENCY,Xanomeline Low Dose,count,quantify,_ALL_,1,
Y,Y,RENAL AND URINARY DISORDERS,NEPHROLITHIASIS,Placebo,countdistinct,usubjid,_ALL_,1,
Y,Y,RENAL AND URINARY DISORDERS,NEPHROLITHIASIS,Placebo,count,quantify,_ALL_,1,
Y,Y,RENAL AND URINARY DISORDERS,NEPHROLITHIASIS,Xanomeline High Dose,countdistinct,usubjid,_ALL_,1,
Y,Y,RENAL AND URINARY DISORDERS,NEPHROLITHIASIS,Xanomeline High Dose,count,quantify,_ALL_,1,
Y,Y,RENAL AND URINARY DISORDERS,POLLAKIURIA,Placebo,countdistinct,usubjid,_ALL_,1,
Y,Y,RENAL AND URINARY DISORDERS,POLLAKIURIA,Placebo,count,quantify,_ALL_,2,
Y,Y,REPRODUCTIVE SYSTEM AND BREAST D,BENIGN PROSTATIC HYPERPLASIA,Placebo,countdistinct,usubjid,_ALL_,1,
Y,Y,REPRODUCTIVE SYSTEM AND BREAST D,BENIGN PROSTATIC HYPERPLASIA,Placebo,count,quantify,_ALL_,2,
Y,Y,REPRODUCTIVE SYSTEM AND BREAST D,BENIGN PROSTATIC HYPERPLASIA,Xanomeline High Dose,countdistinct,usubjid,_ALL_,1,
Y,Y,REPRODUCTIVE SYSTEM AND BREAST D,BENIGN PROSTATIC HYPERPLASIA,Xanomeline High Dose,count,quantify,_ALL_,1,
Y,Y,REPRODUCTIVE SYSTEM AND BREAST D,PELVIC PAIN,Placebo,countdistinct,usubjid,_ALL_,1,
Y,Y,REPRODUCTIVE SYSTEM AND BREAST D,PELVIC PAIN,Placebo,count,quantify,_ALL_,2,
Y,Y,"RESPIRATORY, THORACIC AND MEDIAS",ALLERGIC GRANULOMATOUS ANGIITIS,Xanomeline High Dose,countdistinct,usubjid,_ALL_,1,
Y,Y,"RESPIRATORY, THORACIC AND MEDIAS",ALLERGIC GRANULOMATOUS ANGIITIS,Xanomeline High Dose,count,quantify,_ALL_,1,
Y,Y,"RESPIRATORY, THORACIC AND MEDIAS",COUGH,Placebo,countdistinct,usubjid,_ALL_,1,
Y,Y,"RESPIRATORY, THORACIC AND MEDIAS",COUGH,Placebo,count,quantify,_ALL_,1,
Y,Y,"RESPIRATORY, THORACIC AND MEDIAS",COUGH,Xanomeline High Dose,countdistinct,usubjid,_ALL_,5,
Y,Y,"RESPIRATORY, THORACIC AND MEDIAS",COUGH,Xanomeline High Dose,count,quantify,_ALL_,7,
Y,Y,"RESPIRATORY, THORACIC AND MEDIAS",COUGH,Xanomeline Low Dose,countdistinct,usubjid,_ALL_,5,
Y,Y,"RESPIRATORY, THORACIC AND MEDIAS",COUGH,Xanomeline Low Dose,count,quantify,_ALL_,7,
Y,Y,"RESPIRATORY, THORACIC AND MEDIAS",DYSPHONIA,Xanomeline Low Dose,countdistinct,usubjid,_ALL_,1,
Y,Y,"RESPIRATORY, THORACIC AND MEDIAS",DYSPHONIA,Xanomeline Low Dose,count,quantify,_ALL_,1,
Y,Y,"RESPIRATORY, THORACIC AND MEDIAS",DYSPNOEA,Placebo,countdistinct,usubjid,_ALL_,1,
Y,Y,"RESPIRATORY, THORACIC AND MEDIAS",DYSPNOEA,Placebo,count,quantify,_ALL_,1,
Y,Y,"RESPIRATORY, THORACIC AND MEDIAS",DYSPNOEA,Xanomeline High Dose,countdistinct,usubjid,_ALL_,1,
Y,Y,"RESPIRATORY, THORACIC AND MEDIAS",DYSPNOEA,Xanomeline High Dose,count,quantify,_ALL_,1,
Y,Y,"RESPIRATORY, THORACIC AND MEDIAS",DYSPNOEA,Xanomeline Low Dose,countdistinct,usubjid,_ALL_,1,
Y,Y,"RESPIRATORY, THORACIC AND MEDIAS",DYSPNOEA,Xanomeline Low Dose,count,quantify,_ALL_,1,
Y,Y,"RESPIRATORY, THORACIC AND MEDIAS",EMPHYSEMA,Placebo,countdistinct,usubjid,_ALL_,1,
Y,Y,"RESPIRATORY, THORACIC AND MEDIAS",EMPHYSEMA,Placebo,count,quantify,_ALL_,1,
Y,Y,"RESPIRATORY, THORACIC AND MEDIAS",EPISTAXIS,Xanomeline High Dose,countdistinct,usubjid,_ALL_,2,
Y,Y,"RESPIRATORY, THORACIC AND MEDIAS",EPISTAXIS,Xanomeline High Dose,count,quantify,_ALL_,2,
Y,Y,"RESPIRATORY, THORACIC AND MEDIAS",EPISTAXIS,Xanomeline Low Dose,countdistinct,usubjid,_ALL_,1,
Y,Y,"RESPIRATORY, THORACIC AND MEDIAS",EPISTAXIS,Xanomeline Low Dose,count,quantify,_ALL_,1,
Y,Y,"RESPIRATORY, THORACIC AND MEDIAS",HAEMOPTYSIS,Placebo,countdistinct,usubjid,_ALL_,1,
Y,Y,"RESPIRATORY, THORACIC AND MEDIAS",HAEMOPTYSIS,Placebo,count,quantify,_ALL_,2,
Y,Y,"RESPIRATORY, THORACIC AND MEDIAS",NASAL CONGESTION,Placebo,countdistinct,usubjid,_ALL_,3,
Y,Y,"RESPIRATORY, THORACIC AND MEDIAS",NASAL CONGESTION,Placebo,count,quantify,_ALL_,3,
Y,Y,"RESPIRATORY, THORACIC AND MEDIAS",NASAL CONGESTION,Xanomeline High Dose,countdistinct,usubjid,_ALL_,3,
Y,Y,"RESPIRATORY, THORACIC AND MEDIAS",NASAL CONGESTION,Xanomeline High Dose,count,quantify,_ALL_,4,
Y,Y,"RESPIRATORY, THORACIC AND MEDIAS",NASAL CONGESTION,Xanomeline Low Dose,countdistinct,usubjid,_ALL_,1,
Y,Y,"RESPIRATORY, THORACIC AND MEDIAS",NASAL CONGESTION,Xanomeline Low Dose,count,quantify,_ALL_,1,
Y,Y,"RESPIRATORY, THORACIC AND MEDIAS",PHARYNGEAL ERYTHEMA,Xanomeline High Dose,countdistinct,usubjid,_ALL_,1,
Y,Y,"RESPIRATORY, THORACIC AND MEDIAS",PHARYNGEAL ERYTHEMA,Xanomeline High Dose,count,quantify,_ALL_,2,
Y,Y,"RESPIRATORY, THORACIC AND MEDIAS",PHARYNGOLARYNGEAL PAIN,Xanomeline High Dose,countdistinct,usubjid,_ALL_,1,
Y,Y,"RESPIRATORY, THORACIC AND MEDIAS",PHARYNGOLARYNGEAL PAIN,Xanomeline High Dose,count,quantify,_ALL_,1,
Y,Y,"RESPIRATORY, THORACIC AND MEDIAS",PHARYNGOLARYNGEAL PAIN,Xanomeline Low Dose,countdistinct,usubjid,_ALL_,1,
Y,Y,"RESPIRATORY, THORACIC AND MEDIAS",PHARYNGOLARYNGEAL PAIN,Xanomeline Low Dose,count,quantify,_ALL_,1,
Y,Y,"RESPIRATORY, THORACIC AND MEDIAS",POSTNASAL DRIP,Placebo,countdistinct,usubjid,_ALL_,1,
Y,Y,"RESPIRATORY, THORACIC AND MEDIAS",POSTNASAL DRIP,Placebo,count,quantify,_ALL_,2,
Y,Y,"RESPIRATORY, THORACIC AND MEDIAS",PRODUCTIVE COUGH,Xanomeline High Dose,countdistinct,usubjid,_ALL_,1,
Y,Y,"RESPIRATORY, THORACIC AND MEDIAS",PRODUCTIVE COUGH,Xanomeline High Dose,count,quantify,_ALL_,1,
Y,Y,"RESPIRATORY, THORACIC AND MEDIAS",RALES,Placebo,countdistinct,usubjid,_ALL_,1,
Y,Y,"RESPIRATORY, THORACIC AND MEDIAS",RALES,Placebo,count,quantify,_ALL_,2,
Y,Y,"RESPIRATORY, THORACIC AND MEDIAS",RESPIRATORY TRACT CONGESTION,Xanomeline High Dose,countdistinct,usubjid,_ALL_,1,
Y,Y,"RESPIRATORY, THORACIC AND MEDIAS",RESPIRATORY TRACT CONGESTION,Xanomeline High Dose,count,quantify,_ALL_,1,
Y,Y,"RESPIRATORY, THORACIC AND MEDIAS",RHINORRHOEA,Xanomeline High Dose,countdistinct,usubjid,_ALL_,1,
Y,Y,"RESPIRATORY, THORACIC AND MEDIAS",RHINORRHOEA,Xanomeline High Dose,count,quantify,_ALL_,2,
Y,Y,"RESPIRATORY, THORACIC AND MEDIAS",RHINORRHOEA,Xanomeline Low Dose,countdistinct,usubjid,_ALL_,1,
Y,Y,"RESPIRATORY, THORACIC AND MEDIAS",RHINORRHOEA,Xanomeline Low Dose,count,quantify,_ALL_,2,
Y,Y,SKIN AND SUBCUTANEOUS TISSUE DIS,ACTINIC KERATOSIS,Xanomeline High Dose,countdistinct,usubjid,_ALL_,1,
Y,Y,SKIN AND SUBCUTANEOUS TISSUE DIS,ACTINIC KERATOSIS,Xanomeline High Dose,count,quantify,_ALL_,1,
Y,Y,SKIN AND SUBCUTANEOUS TISSUE DIS,ALOPECIA,Placebo,countdistinct,usubjid,_ALL_,1,
Y,Y,SKIN AND SUBCUTANEOUS TISSUE DIS,ALOPECIA,Placebo,count,quantify,_ALL_,1,
Y,Y,SKIN AND SUBCUTANEOUS TISSUE DIS,BLISTER,Xanomeline High Dose,countdistinct,usubjid,_ALL_,1,
Y,Y,SKIN AND SUBCUTANEOUS TISSUE DIS,BLISTER,Xanomeline High Dose,count,quantify,_ALL_,2,
Y,Y,SKIN AND SUBCUTANEOUS TISSUE DIS,BLISTER,Xanomeline Low Dose,countdistinct,usubjid,_ALL_,5,
Y,Y,SKIN AND SUBCUTANEOUS TISSUE DIS,BLISTER,Xanomeline Low Dose,count,quantify,_ALL_,8,
Y,Y,SKIN AND SUBCUTANEOUS TISSUE DIS,COLD SWEAT,Placebo,countdistinct,usubjid,_ALL_,1,
Y,Y,SKIN AND SUBCUTANEOUS TISSUE DIS,COLD SWEAT,Placebo,count,quantify,_ALL_,3,
Y,Y,SKIN AND SUBCUTANEOUS TISSUE DIS,DERMATITIS CONTACT,Xanomeline Low Dose,countdistinct,usubjid,_ALL_,1,
Y,Y,SKIN AND SUBCUTANEOUS TISSUE DIS,DERMATITIS CONTACT,Xanomeline Low Dose,count,quantify,_ALL_,2,
Y,Y,SKIN AND SUBCUTANEOUS TISSUE DIS,DRUG ERUPTION,Placebo,countdistinct,usubjid,_ALL_,1,
Y,Y,SKIN AND SUBCUTANEOUS TISSUE DIS,DRUG ERUPTION,Placebo,count,quantify,_ALL_,1,
Y,Y,SKIN AND SUBCUTANEOUS TISSUE DIS,ERYTHEMA,Placebo,countdistinct,usubjid,_ALL_,8,
Y,Y,SKIN AND SUBCUTANEOUS TISSUE DIS,ERYTHEMA,Placebo,count,quantify,_ALL_,12,
Y,Y,SKIN AND SUBCUTANEOUS TISSUE DIS,ERYTHEMA,Xanomeline High Dose,countdistinct,usubjid,_ALL_,14,
Y,Y,SKIN AND SUBCUTANEOUS TISSUE DIS,ERYTHEMA,Xanomeline High Dose,count,quantify,_ALL_,22,
Y,Y,SKIN AND SUBCUTANEOUS TISSUE DIS,ERYTHEMA,Xanomeline Low Dose,countdistinct,usubjid,_ALL_,14,
Y,Y,SKIN AND SUBCUTANEOUS TISSUE DIS,ERYTHEMA,Xanomeline Low Dose,count,quantify,_ALL_,22,
Y,Y,SKIN AND SUBCUTANEOUS TISSUE DIS,HYPERHIDROSIS,Placebo,countdistinct,usubjid,_ALL_,2,
Y,Y,SKIN AND SUBCUTANEOUS TISSUE DIS,HYPERHIDROSIS,Placebo,count,quantify,_ALL_,2,
Y,Y,SKIN AND SUBCUTANEOUS TISSUE DIS,HYPERHIDROSIS,Xanomeline High Dose,countdistinct,usubjid,_ALL_,8,
Y,Y,SKIN AND SUBCUTANEOUS TISSUE DIS,HYPERHIDROSIS,Xanomeline High Dose,count,quantify,_ALL_,10,
Y,Y,SKIN AND SUBCUTANEOUS TISSUE DIS,HYPERHIDROSIS,Xanomeline Low Dose,countdistinct,usubjid,_ALL_,4,
Y,Y,SKIN AND SUBCUTANEOUS TISSUE DIS,HYPERHIDROSIS,Xanomeline Low Dose,count,quantify,_ALL_,5,
Y,Y,SKIN AND SUBCUTANEOUS TISSUE DIS,PRURITUS,Placebo,countdistinct,usubjid,_ALL_,8,
Y,Y,SKIN AND SUBCUTANEOUS TISSUE DIS,PRURITUS,Placebo,count,quantify,_ALL_,11,
Y,Y,SKIN AND SUBCUTANEOUS TISSUE DIS,PRURITUS,Xanomeline High Dose,countdistinct,usubjid,_ALL_,26,
Y,Y,SKIN AND SUBCUTANEOUS TISSUE DIS,PRURITUS,Xanomeline High Dose,count,quantify,_ALL_,38,
Y,Y,SKIN AND SUBCUTANEOUS TISSUE DIS,PRURITUS,Xanomeline Low Dose,countdistinct,usubjid,_ALL_,21,
Y,Y,SKIN AND SUBCUTANEOUS TISSUE DIS,PRURITUS,Xanomeline Low Dose,count,quantify,_ALL_,31,
Y,Y,SKIN AND SUBCUTANEOUS TISSUE DIS,PRURITUS GENERALISED,Xanomeline High Dose,countdistinct,usubjid,_ALL_,1,
Y,Y,SKIN AND SUBCUTANEOUS TISSUE DIS,PRURITUS GENERALISED,Xanomeline High Dose,count,quantify,_ALL_,1,
Y,Y,SKIN AND SUBCUTANEOUS TISSUE DIS,PRURITUS GENERALISED,Xanomeline Low Dose,countdistinct,usubjid,_ALL_,1,
Y,Y,SKIN AND SUBCUTANEOUS TISSUE DIS,PRURITUS GENERALISED,Xanomeline Low Dose,count,quantify,_ALL_,4,
Y,Y,SKIN AND SUBCUTANEOUS TISSUE DIS,RASH,Placebo,countdistinct,usubjid,_ALL_,5,
Y,Y,SKIN AND SUBCUTANEOUS TISSUE DIS,RASH,Placebo,count,quantify,_ALL_,9,
Y,Y,SKIN AND SUBCUTANEOUS TISSUE DIS,RASH,Xanomeline High Dose,countdistinct,usubjid,_ALL_,9,
Y,Y,SKIN AND SUBCUTANEOUS TISSUE DIS,RASH,Xanomeline High Dose,count,quantify,_ALL_,15,
Y,Y,SKIN AND SUBCUTANEOUS TISSUE DIS,RASH,Xanomeline Low Dose,countdistinct,usubjid,_ALL_,13,
Y,Y,SKIN AND SUBCUTANEOUS TISSUE DIS,RASH,Xanomeline Low Dose,count,quantify,_ALL_,18,
Y,Y,SKIN AND SUBCUTANEOUS TISSUE DIS,RASH ERYTHEMATOUS,Xanomeline Low Dose,countdistinct,usubjid,_ALL_,1,
Y,Y,SKIN AND SUBCUTANEOUS TISSUE DIS,RASH ERYTHEMATOUS,Xanomeline Low Dose,count,quantify,_ALL_,1,
Y,Y,SKIN AND SUBCUTANEOUS TISSUE DIS,RASH MACULO-PAPULAR,Xanomeline High Dose,countdistinct,usubjid,_ALL_,1,
Y,Y,SKIN AND SUBCUTANEOUS TISSUE DIS,RASH MACULO-PAPULAR,Xanomeline High Dose,count,quantify,_ALL_,1,
Y,Y,SKIN AND SUBCUTANEOUS TISSUE DIS,RASH PRURITIC,Xanomeline High Dose,countdistinct,usubjid,_ALL_,2,
Y,Y,SKIN AND SUBCUTANEOUS TISSUE DIS,RASH PRURITIC,Xanomeline High Dose,count,quantify,_ALL_,3,
Y,Y,SKIN AND SUBCUTANEOUS TISSUE DIS,RASH PRURITIC,Xanomeline Low Dose,countdistinct,usubjid,_ALL_,1,
Y,Y,SKIN AND SUBCUTANEOUS TISSUE DIS,RASH PRURITIC,Xanomeline Low Dose,count,quantify,_ALL_,2,
Y,Y,SKIN AND SUBCUTANEOUS TISSUE DIS,SKIN EXFOLIATION,Xanomeline Low Dose,countdistinct,usubjid,_ALL_,1,
Y,Y,SKIN AND SUBCUTANEOUS TISSUE DIS,SKIN EXFOLIATION,Xanomeline Low Dose,count,quantify,_ALL_,2,
Y,Y,SKIN AND SUBCUTANEOUS TISSUE DIS,SKIN IRRITATION,Placebo,countdistinct,usubjid,_ALL_,3,
Y,Y,SKIN AND SUBCUTANEOUS TISSUE DIS,SKIN IRRITATION,Placebo,count,quantify,_ALL_,4,
Y,Y,SKIN AND SUBCUTANEOUS TISSUE DIS,SKIN IRRITATION,Xanomeline High Dose,countdistinct,usubjid,_ALL_,5,
Y,Y,SKIN AND SUBCUTANEOUS TISSUE DIS,SKIN IRRITATION,Xanomeline High Dose,count,quantify,_ALL_,8,
Y,Y,SKIN AND SUBCUTANEOUS TISSUE DIS,SKIN IRRITATION,Xanomeline Low Dose,countdistinct,usubjid,_ALL_,6,
Y,Y,SKIN AND SUBCUTANEOUS TISSUE DIS,SKIN IRRITATION,Xanomeline Low Dose,count,quantify,_ALL_,13,
Y,Y,SKIN AND SUBCUTANEOUS TISSUE DIS,SKIN ODOUR ABNORMAL,Xanomeline High Dose,countdistinct,usubjid,_ALL_,1,
Y,Y,SKIN AND SUBCUTANEOUS TISSUE DIS,SKIN ODOUR ABNORMAL,Xanomeline High Dose,count,quantify,_ALL_,1,
Y,Y,SKIN AND SUBCUTANEOUS TISSUE DIS,SKIN ULCER,Placebo,countdistinct,usubjid,_ALL_,1,
Y,Y,SKIN AND SUBCUTANEOUS TISSUE DIS,SKIN ULCER,Placebo,count,quantify,_ALL_,2,
Y,Y,SKIN AND SUBCUTANEOUS TISSUE DIS,URTICARIA,Xanomeline High Dose,countdistinct,usubjid,_ALL_,1,
Y,Y,SKIN AND SUBCUTANEOUS TISSUE DIS,URTICARIA,Xanomeline High Dose,count,quantify,_ALL_,2,
Y,Y,SKIN AND SUBCUTANEOUS TISSUE DIS,URTICARIA,Xanomeline Low Dose,countdistinct,usubjid,_ALL_,1,
Y,Y,SKIN AND SUBCUTANEOUS TISSUE DIS,URTICARIA,Xanomeline Low Dose,count,quantify,_ALL_,3,
Y,Y,SOCIAL CIRCUMSTANCES,ALCOHOL USE,Xanomeline High Dose,countdistinct,usubjid,_ALL_,1,
Y,Y,SOCIAL CIRCUMSTANCES,ALCOHOL USE,Xanomeline High Dose,count,quantify,_ALL_,1,
Y,Y,SURGICAL AND MEDICAL PROCEDURES,ACROCHORDON EXCISION,Xanomeline High Dose,countdistinct,usubjid,_ALL_,1,
Y,Y,SURGICAL AND MEDICAL PROCEDURES,ACROCHORDON EXCISION,Xanomeline High Dose,count,quantify,_ALL_,1,
Y,Y,SURGICAL AND MEDICAL PROCEDURES,CATARACT OPERATION,Placebo,countdistinct,usubjid,_ALL_,1,
Y,Y,SURGICAL AND MEDICAL PROCEDURES,CATARACT OPERATION,Placebo,count,quantify,_ALL_,1,
Y,Y,SURGICAL AND MEDICAL PROCEDURES,CATARACT OPERATION,Xanomeline Low Dose,countdistinct,usubjid,_ALL_,1,
Y,Y,SURGICAL AND MEDICAL PROCEDURES,CATARACT OPERATION,Xanomeline Low Dose,count,quantify,_ALL_,1,
Y,Y,SURGICAL AND MEDICAL PROCEDURES,EYE LASER SURGERY,Placebo,countdistinct,usubjid,_ALL_,1,
Y,Y,SURGICAL AND MEDICAL PROCEDURES,EYE LASER SURGERY,Placebo,count,quantify,_ALL_,1,
Y,Y,SURGICAL AND MEDICAL PROCEDURES,SKIN LESION EXCISION,Xanomeline High Dose,countdistinct,usubjid,_ALL_,1,
Y,Y,SURGICAL AND MEDICAL PROCEDURES,SKIN LESION EXCISION,Xanomeline High Dose,count,quantify,_ALL_,1,
Y,Y,VASCULAR DISORDERS,HOT FLUSH,Xanomeline Low Dose,countdistinct,usubjid,_ALL_,1,
Y,Y,VASCULAR DISORDERS,HOT FLUSH,Xanomeline Low Dose,count,quantify,_ALL_,1,
Y,Y,VASCULAR DISORDERS,HYPERTENSION,Placebo,countdistinct,usubjid,_ALL_,1,
Y,Y,VASCULAR DISORDERS,HYPERTENSION,Placebo,count,quantify,_ALL_,2,
Y,Y,VASCULAR DISORDERS,HYPERTENSION,Xanomeline Low Dose,countdistinct,usubjid,_ALL_,1,
Y,Y,VASCULAR DISORDERS,HYPERTENSION,Xanomeline Low Dose,count,quantify,_ALL_,1,
Y,Y,VASCULAR DISORDERS,HYPOTENSION,Placebo,countdistinct,usubjid,_ALL_,2,
Y,Y,VASCULAR DISORDERS,HYPOTENSION,Placebo,count,quantify,_ALL_,3,
Y,Y,VASCULAR DISORDERS,HYPOTENSION,Xanomeline Low Dose,countdistinct,usubjid,_ALL_,1,
Y,Y,VASCULAR DISORDERS,HYPOTENSION,Xanomeline Low Dose,count,quantify,_ALL_,1,
Y,Y,VASCULAR DISORDERS,ORTHOSTATIC HYPOTENSION,Placebo,countdistinct,usubjid,_ALL_,1,
Y,Y,VASCULAR DISORDERS,ORTHOSTATIC HYPOTENSION,Placebo,count,quantify,_ALL_,2,
Y,Y,VASCULAR DISORDERS,WOUND HAEMORRHAGE,Xanomeline High Dose,countdistinct,usubjid,_ALL_,1,
Y,Y,VASCULAR DISORDERS,WOUND HAEMORRHAGE,Xanomeline High Dose,count,quantify,_ALL_,1,
Y,Y,_ALL_,_ALL_,Placebo,countdistinct,usubjid,_ALL_,65,
Y,Y,_ALL_,_ALL_,Placebo,count,quantify,_ALL_,281,
Y,Y,_ALL_,_ALL_,Xanomeline High Dose,countdistinct,usubjid,_ALL_,76,
Y,Y,_ALL_,_ALL_,Xanomeline High Dose,count,quantify,_ALL_,433,
Y,Y,_ALL_,_ALL_,Xanomeline Low Dose,countdistinct,usubjid,_ALL_,77,
Y,Y,_ALL_,_ALL_,Xanomeline Low Dose,count,quantify,_ALL_,412,
Y,Y,CARDIAC DISORDERS,_ALL_,Placebo,countdistinct,usubjid,_ALL_,12,
Y,Y,CARDIAC DISORDERS,_ALL_,Placebo,count,quantify,_ALL_,26,
Y,Y,CARDIAC DISORDERS,_ALL_,Xanomeline High Dose,countdistinct,usubjid,_ALL_,15,
Y,Y,CARDIAC DISORDERS,_ALL_,Xanomeline High Dose,count,quantify,_ALL_,30,
Y,Y,CARDIAC DISORDERS,_ALL_,Xanomeline Low Dose,countdistinct,usubjid,_ALL_,13,
Y,Y,CARDIAC DISORDERS,_ALL_,Xanomeline Low Dose,count,quantify,_ALL_,30,
Y,Y,"CONGENITAL, FAMILIAL AND GENETIC",_ALL_,Xanomeline High Dose,countdistinct,usubjid,_ALL_,2,
Y,Y,"CONGENITAL, FAMILIAL AND GENETIC",_ALL_,Xanomeline High Dose,count,quantify,_ALL_,2,
Y,Y,"CONGENITAL, FAMILIAL AND GENETIC",_ALL_,Xanomeline Low Dose,countdistinct,usubjid,_ALL_,1,
Y,Y,"CONGENITAL, FAMILIAL AND GENETIC",_ALL_,Xanomeline Low Dose,count,quantify,_ALL_,1,
Y,Y,EAR AND LABYRINTH DISORDERS,_ALL_,Placebo,countdistinct,usubjid,_ALL_,1,
Y,Y,EAR AND LABYRINTH DISORDERS,_ALL_,Placebo,count,quantify,_ALL_,2,
Y,Y,EAR AND LABYRINTH DISORDERS,_ALL_,Xanomeline High Dose,countdistinct,usubjid,_ALL_,1,
Y,Y,EAR AND LABYRINTH DISORDERS,_ALL_,Xanomeline High Dose,count,quantify,_ALL_,1,
Y,Y,EAR AND LABYRINTH DISORDERS,_ALL_,Xanomeline Low Dose,countdistinct,usubjid,_ALL_,2,
Y,Y,EAR AND LABYRINTH DISORDERS,_ALL_,Xanomeline Low Dose,count,quantify,_ALL_,2,
Y,Y,EYE DISORDERS,_ALL_,Placebo,countdistinct,usubjid,_ALL_,2,
Y,Y,EYE DISORDERS,_ALL_,Placebo,count,quantify,_ALL_,5,
Y,Y,EYE DISORDERS,_ALL_,Xanomeline High Dose,countdistinct,usubjid,_ALL_,1,
Y,Y,EYE DISORDERS,_ALL_,Xanomeline High Dose,count,quantify,_ALL_,2,
Y,Y,EYE DISORDERS,_ALL_,Xanomeline Low Dose,countdistinct,usubjid,_ALL_,2,
Y,Y,EYE DISORDERS,_ALL_,Xanomeline Low Dose,count,quantify,_ALL_,2,
Y,Y,GASTROINTESTINAL DISORDERS,_ALL_,Placebo,countdistinct,usubjid,_ALL_,17,
Y,Y,GASTROINTESTINAL DISORDERS,_ALL_,Placebo,count,quantify,_ALL_,26,
Y,Y,GASTROINTESTINAL DISORDERS,_ALL_,Xanomeline High Dose,countdistinct,usubjid,_ALL_,20,
Y,Y,GASTROINTESTINAL DISORDERS,_ALL_,Xanomeline High Dose,count,quantify,_ALL_,36,
Y,Y,GASTROINTESTINAL DISORDERS,_ALL_,Xanomeline Low Dose,countdistinct,usubjid,_ALL_,14,
Y,Y,GASTROINTESTINAL DISORDERS,_ALL_,Xanomeline Low Dose,count,quantify,_ALL_,22,
Y,Y,GENERAL DISORDERS AND ADMINISTRA,_ALL_,Placebo,countdistinct,usubjid,_ALL_,21,
Y,Y,GENERAL DISORDERS AND ADMINISTRA,_ALL_,Placebo,count,quantify,_ALL_,46,
Y,Y,GENERAL DISORDERS AND ADMINISTRA,_ALL_,Xanomeline High Dose,countdistinct,usubjid,_ALL_,40,
Y,Y,GENERAL DISORDERS AND ADMINISTRA,_ALL_,Xanomeline High Dose,count,quantify,_ALL_,124,
Y,Y,GENERAL DISORDERS AND ADMINISTRA,_ALL_,Xanomeline Low Dose,countdistinct,usubjid,_ALL_,47,
Y,Y,GENERAL DISORDERS AND ADMINISTRA,_ALL_,Xanomeline Low Dose,count,quantify,_ALL_,118,
Y,Y,HEPATOBILIARY DISORDERS,_ALL_,Placebo,countdistinct,usubjid,_ALL_,1,
Y,Y,HEPATOBILIARY DISORDERS,_ALL_,Placebo,count,quantify,_ALL_,1,
Y,Y,IMMUNE SYSTEM DISORDERS,_ALL_,Xanomeline Low Dose,countdistinct,usubjid,_ALL_,1,
Y,Y,IMMUNE SYSTEM DISORDERS,_ALL_,Xanomeline Low Dose,count,quantify,_ALL_,2,
Y,Y,INFECTIONS AND INFESTATIONS,_ALL_,Placebo,countdistinct,usubjid,_ALL_,16,
Y,Y,INFECTIONS AND INFESTATIONS,_ALL_,Placebo,count,quantify,_ALL_,35,
Y,Y,INFECTIONS AND INFESTATIONS,_ALL_,Xanomeline High Dose,countdistinct,usubjid,_ALL_,13,
Y,Y,INFECTIONS AND INFESTATIONS,_ALL_,Xanomeline High Dose,count,quantify,_ALL_,20,
Y,Y,INFECTIONS AND INFESTATIONS,_ALL_,Xanomeline Low Dose,countdistinct,usubjid,_ALL_,9,
Y,Y,INFECTIONS AND INFESTATIONS,_ALL_,Xanomeline Low Dose,count,quantify,_ALL_,16,
Y,Y,"INJURY, POISONING AND PROCEDURAL",_ALL_,Placebo,countdistinct,usubjid,_ALL_,4,
Y,Y,"INJURY, POISONING AND PROCEDURAL",_ALL_,Placebo,count,quantify,_ALL_,9,
Y,Y,"INJURY, POISONING AND PROCEDURAL",_ALL_,Xanomeline High Dose,countdistinct,usubjid,_ALL_,5,
Y,Y,"INJURY, POISONING AND PROCEDURAL",_ALL_,Xanomeline High Dose,count,quantify,_ALL_,8,
Y,Y,"INJURY, POISONING AND PROCEDURAL",_ALL_,Xanomeline Low Dose,countdistinct,usubjid,_ALL_,5,
Y,Y,"INJURY, POISONING AND PROCEDURAL",_ALL_,Xanomeline Low Dose,count,quantify,_ALL_,12,
Y,Y,INVESTIGATIONS,_ALL_,Placebo,countdistinct,usubjid,_ALL_,10,
Y,Y,INVESTIGATIONS,_ALL_,Placebo,count,quantify,_ALL_,19,
Y,Y,INVESTIGATIONS,_ALL_,Xanomeline High Dose,countdistinct,usubjid,_ALL_,6,
Y,Y,INVESTIGATIONS,_ALL_,Xanomeline High Dose,count,quantify,_ALL_,8,
Y,Y,INVESTIGATIONS,_ALL_,Xanomeline Low Dose,countdistinct,usubjid,_ALL_,6,
Y,Y,INVESTIGATIONS,_ALL_,Xanomeline Low Dose,count,quantify,_ALL_,7,
Y,Y,METABOLISM AND NUTRITION DISORDE,_ALL_,Placebo,countdistinct,usubjid,_ALL_,6,
Y,Y,METABOLISM AND NUTRITION DISORDE,_ALL_,Placebo,count,quantify,_ALL_,8,
Y,Y,METABOLISM AND NUTRITION DISORDE,_ALL_,Xanomeline High Dose,countdistinct,usubjid,_ALL_,2,
Y,Y,METABOLISM AND NUTRITION DISORDE,_ALL_,Xanomeline High Dose,count,quantify,_ALL_,4,
Y,Y,METABOLISM AND NUTRITION DISORDE,_ALL_,Xanomeline Low Dose,countdistinct,usubjid,_ALL_,1,
Y,Y,METABOLISM AND NUTRITION DISORDE,_ALL_,Xanomeline Low Dose,count,quantify,_ALL_,1,
Y,Y,MUSCULOSKELETAL AND CONNECTIVE T,_ALL_,Placebo,countdistinct,usubjid,_ALL_,4,
Y,Y,MUSCULOSKELETAL AND CONNECTIVE T,_ALL_,Placebo,count,quantify,_ALL_,6,
Y,Y,MUSCULOSKELETAL AND CONNECTIVE T,_ALL_,Xanomeline High Dose,countdistinct,usubjid,_ALL_,7,
Y,Y,MUSCULOSKELETAL AND CONNECTIVE T,_ALL_,Xanomeline High Dose,count,quantify,_ALL_,10,
Y,Y,MUSCULOSKELETAL AND CONNECTIVE T,_ALL_,Xanomeline Low Dose,countdistinct,usubjid,_ALL_,7,
Y,Y,MUSCULOSKELETAL AND CONNECTIVE T,_ALL_,Xanomeline Low Dose,count,quantify,_ALL_,10,
Y,Y,"NEOPLASMS BENIGN, MALIGNANT AND",_ALL_,Xanomeline High Dose,countdistinct,usubjid,_ALL_,1,
Y,Y,"NEOPLASMS BENIGN, MALIGNANT AND",_ALL_,Xanomeline High Dose,count,quantify,_ALL_,1,
Y,Y,"NEOPLASMS BENIGN, MALIGNANT AND",_ALL_,Xanomeline Low Dose,countdistinct,usubjid,_ALL_,2,
Y,Y,"NEOPLASMS BENIGN, MALIGNANT AND",_ALL_,Xanomeline Low Dose,count,quantify,_ALL_,3,
Y,Y,NERVOUS SYSTEM DISORDERS,_ALL_,Placebo,countdistinct,usubjid,_ALL_,8,
Y,Y,NERVOUS SYSTEM DISORDERS,_ALL_,Placebo,count,quantify,_ALL_,11,
Y,Y,NERVOUS SYSTEM DISORDERS,_ALL_,Xanomeline High Dose,countdistinct,usubjid,_ALL_,25,
Y,Y,NERVOUS SYSTEM DISORDERS,_ALL_,Xanomeline High Dose,count,quantify,_ALL_,41,
Y,Y,NERVOUS SYSTEM DISORDERS,_ALL_,Xanomeline Low Dose,countdistinct,usubjid,_ALL_,20,
Y,Y,NERVOUS SYSTEM DISORDERS,_ALL_,Xanomeline Low Dose,count,quantify,_ALL_,40,
Y,Y,PSYCHIATRIC DISORDERS,_ALL_,Placebo,countdistinct,usubjid,_ALL_,10,
Y,Y,PSYCHIATRIC DISORDERS,_ALL_,Placebo,count,quantify,_ALL_,12,
Y,Y,PSYCHIATRIC DISORDERS,_ALL_,Xanomeline High Dose,countdistinct,usubjid,_ALL_,8,
Y,Y,PSYCHIATRIC DISORDERS,_ALL_,Xanomeline High Dose,count,quantify,_ALL_,11,
Y,Y,PSYCHIATRIC DISORDERS,_ALL_,Xanomeline Low Dose,countdistinct,usubjid,_ALL_,10,
Y,Y,PSYCHIATRIC DISORDERS,_ALL_,Xanomeline Low Dose,count,quantify,_ALL_,14,
Y,Y,RENAL AND URINARY DISORDERS,_ALL_,Placebo,countdistinct,usubjid,_ALL_,4,
Y,Y,RENAL AND URINARY DISORDERS,_ALL_,Placebo,count,quantify,_ALL_,5,
Y,Y,RENAL AND URINARY DISORDERS,_ALL_,Xanomeline High Dose,countdistinct,usubjid,_ALL_,3,
Y,Y,RENAL AND URINARY DISORDERS,_ALL_,Xanomeline High Dose,count,quantify,_ALL_,4,
Y,Y,RENAL AND URINARY DISORDERS,_ALL_,Xanomeline Low Dose,countdistinct,usubjid,_ALL_,3,
Y,Y,RENAL AND URINARY DISORDERS,_ALL_,Xanomeline Low Dose,count,quantify,_ALL_,3,
Y,Y,REPRODUCTIVE SYSTEM AND BREAST D,_ALL_,Placebo,countdistinct,usubjid,_ALL_,2,
Y,Y,REPRODUCTIVE SYSTEM AND BREAST D,_ALL_,Placebo,count,quantify,_ALL_,4,
Y,Y,REPRODUCTIVE SYSTEM AND BREAST D,_ALL_,Xanomeline High Dose,countdistinct,usubjid,_ALL_,1,
Y,Y,REPRODUCTIVE SYSTEM AND BREAST D,_ALL_,Xanomeline High Dose,count,quantify,_ALL_,1,
Y,Y,"RESPIRATORY, THORACIC AND MEDIAS",_ALL_,Placebo,countdistinct,usubjid,_ALL_,8,
Y,Y,"RESPIRATORY, THORACIC AND MEDIAS",_ALL_,Placebo,count,quantify,_ALL_,12,
Y,Y,"RESPIRATORY, THORACIC AND MEDIAS",_ALL_,Xanomeline High Dose,countdistinct,usubjid,_ALL_,10,
Y,Y,"RESPIRATORY, THORACIC AND MEDIAS",_ALL_,Xanomeline High Dose,count,quantify,_ALL_,22,
Y,Y,"RESPIRATORY, THORACIC AND MEDIAS",_ALL_,Xanomeline Low Dose,countdistinct,usubjid,_ALL_,9,
Y,Y,"RESPIRATORY, THORACIC AND MEDIAS",_ALL_,Xanomeline Low Dose,count,quantify,_ALL_,14,
Y,Y,SKIN AND SUBCUTANEOUS TISSUE DIS,_ALL_,Placebo,countdistinct,usubjid,_ALL_,20,
Y,Y,SKIN AND SUBCUTANEOUS TISSUE DIS,_ALL_,Placebo,count,quantify,_ALL_,45,
Y,Y,SKIN AND SUBCUTANEOUS TISSUE DIS,_ALL_,Xanomeline High Dose,countdistinct,usubjid,_ALL_,40,
Y,Y,SKIN AND SUBCUTANEOUS TISSUE DIS,_ALL_,Xanomeline High Dose,count,quantify,_ALL_,104,
Y,Y,SKIN AND SUBCUTANEOUS TISSUE DIS,_ALL_,Xanomeline Low Dose,countdistinct,usubjid,_ALL_,39,
Y,Y,SKIN AND SUBCUTANEOUS TISSUE DIS,_ALL_,Xanomeline Low Dose,count,quantify,_ALL_,111,
Y,Y,SOCIAL CIRCUMSTANCES,_ALL_,Xanomeline High Dose,countdistinct,usubjid,_ALL_,1,
Y,Y,SOCIAL CIRCUMSTANCES,_ALL_,Xanomeline High Dose,count,quantify,_ALL_,1,
Y,Y,SURGICAL AND MEDICAL PROCEDURES,_ALL_,Placebo,countdistinct,usubjid,_ALL_,2,
Y,Y,SURGICAL AND MEDICAL PROCEDURES,_ALL_,Placebo,count,quantify,_ALL_,2,
Y,Y,SURGICAL AND MEDICAL PROCEDURES,_ALL_,Xanomeline High Dose,countdistinct,usubjid,_ALL_,2,
Y,Y,SURGICAL AND MEDICAL PROCEDURES,_ALL_,Xanomeline High Dose,count,quantify,_ALL_,2,
Y,Y,SURGICAL AND MEDICAL PROCEDURES,_ALL_,Xanomeline Low Dose,countdistinct,usubjid,_ALL_,1,
Y,Y,SURGICAL AND MEDICAL PROCEDURES,_ALL_,Xanomeline Low Dose,count,quantify,_ALL_,1,
Y,Y,VASCULAR DISORDERS,_ALL_,Placebo,countdistinct,usubjid,_ALL_,3,
Y,Y,VASCULAR DISORDERS,_ALL_,Placebo,count,quantify,_ALL_,7,
Y,Y,VASCULAR DISORDERS,_ALL_,Xanomeline High Dose,countdistinct,usubjid,_ALL_,1,
Y,Y,VASCULAR DISORDERS,_ALL_,Xanomeline High Dose,count,quantify,_ALL_,1,
Y,Y,VASCULAR DISORDERS,_ALL_,Xanomeline Low Dose,countdistinct,usubjid,_ALL_,3,
Y,Y,VASCULAR DISORDERS,_ALL_,Xanomeline Low Dose,count,quantify,_ALL_,3,
